timestamp,ax,ay,az,gx,gy,gz
14:01:15.018,-4.0259242,0.58175498,8.8621178,-0.019088976,-0.036498122,-0.0077119465,0.0,0.0,0.0
14:01:15.223,-3.9900317,0.53868419,8.8764744,-0.0087045738,-0.044439137,-0.013209572,0.0,0.0,0.0
14:01:15.358,-4.0091743,0.51475596,8.8860464,-0.014202199,-0.03283304,-0.011987877,0.0,0.0,0.0
14:01:15.494,-4.001996,0.50039905,8.9075813,-0.00015271181,-0.029778805,-0.01137703,0.0,0.0,0.0
14:01:15.624,-3.9158542,0.47886363,8.9937229,-0.0099262679,-0.0029015245,-0.0052685575,0.0,0.0,0.0
14:01:15.743,-3.9038901,0.48125646,8.962616,-0.01175881,-0.010231691,-0.0046577104,0.0,0.0,0.0
14:01:15.884,-3.8751762,0.48364928,8.9482594,0.0071774554,0.00076355907,-0.0022143214,0.0,0.0,0.0
14:01:16.019,-3.9230328,0.49322057,8.9386883,0.012064233,0.0032069481,0.00022906772,0.0,0.0,0.0
14:01:16.120,-3.9038901,0.48604211,8.9075813,0.0053449133,-0.0035123718,-0.0028251687,0.0,0.0,0.0
14:01:16.261,-3.8584266,0.48843491,8.8932247,0.02183779,0.024586603,0.0075592347,0.0,0.0,0.0
14:01:16.390,-3.9421754,0.49800622,8.9243307,0.0010689828,-0.035276428,-0.00099262677,0.0,0.0,0.0
14:01:16.519,-4.0091743,0.4764708,8.93151,-0.00076355907,0.031916771,0.010002624,0.0,0.0,0.0
14:01:16.620,-3.9469609,0.52911294,8.9697952,0.010231691,0.019088976,0.0075592347,0.0,0.0,0.0
14:01:17.060,-3.9349968,0.58654064,8.9578304,0.0041232188,0.037414394,0.0087809293,0.0,0.0,0.0
14:01:17.184,-3.9230328,0.53389853,8.9602232,-0.011147963,-0.0077883024,0.0014507623,0.0,0.0,0.0
14:01:17.374,-3.9684963,0.52432728,8.9219379,-0.00015271181,0.0074828789,0.0032833039,0.0,0.0,0.0
14:01:17.518,-4.0402808,0.51954162,8.9267244,-0.0038177953,0.012369657,-0.0040468629,0.0,0.0,0.0
14:01:17.849,-3.8751762,0.52911294,8.9961157,-0.011147963,-0.027335415,-0.01809635,0.0,0.0,0.0
14:01:18.314,-3.9014974,0.49322057,8.9171524,-0.0019852535,-0.035887275,-0.021150587,0.0,0.0,0.0
14:01:18.526,-3.8536408,0.43818563,9.0080795,0.0090099974,0.011147963,-0.0028251687,0.0,0.0,0.0
14:01:18.657,-3.8584266,0.45254257,9.0224371,0.0193944,0.016645588,-0.00099262677,0.0,0.0,0.0
14:01:18.769,-3.8847475,0.43340001,8.9817591,0.0077883024,0.014813046,-0.0046577104,0.0,0.0,0.0
14:01:18.926,-3.9158542,0.43100718,8.962616,0.0077883024,0.0038177953,0.0087809293,0.0,0.0,0.0
14:01:19.238,-4.0163527,0.51236314,8.8884392,0.018783553,0.0093154209,0.0038941512,0.0,0.0,0.0
14:01:19.600,-4.0235314,0.50757748,8.9243307,0.00045813544,0.0050394898,-0.00099262677,0.0,0.0,0.0
14:01:19.716,-4.001996,0.51954162,8.9075813,0.0041232188,0.0093154209,-0.00099262677,0.0,0.0,0.0
14:01:20.166,-3.9924245,0.49800622,8.8669033,-0.00076355907,0.0013744063,0.00022906772,0.0,0.0,0.0
14:01:20.279,-3.9541395,0.51475596,8.9339027,0.0041232188,0.0093154209,0.0045049987,0.0,0.0,0.0
14:01:20.448,-3.8895333,0.48604211,8.9937229,-0.014813046,-0.047493376,-0.013820419,0.0,0.0,0.0
14:01:20.557,-3.9900317,0.45972106,8.8884392,-0.0013744063,-0.0077883024,-0.010155336,0.0,0.0,0.0
14:01:20.681,-3.9445682,0.46929234,9.003294,0.0053449133,-0.00045813544,-0.0040468629,0.0,0.0,0.0
14:01:20.792,-3.8656049,0.4764708,8.9650087,-0.0080937259,-0.022448637,-0.013820419,0.0,0.0,0.0
14:01:20.908,-3.8440695,0.41904306,8.9697952,-0.0025961008,-0.02183779,-0.011987877,0.0,0.0,0.0
14:01:21.060,-3.7986059,0.40707895,8.9985085,0.0010689828,-0.013896775,-0.009544488,0.0,0.0,0.0
14:01:21.190,-3.7914274,0.41186461,9.0559368,-0.0044286428,-0.0096208444,-0.006490252,0.0,0.0,0.0
14:01:21.348,-3.8153558,0.38793638,8.9865446,0.0029015245,0.014202199,0.0032833039,0.0,0.0,0.0
14:01:21.472,-3.8464625,0.43818563,8.9985085,0.0077883024,0.017867282,0.00083991501,0.0,0.0,0.0
14:01:21.577,-3.8249271,0.36879379,9.0391865,-0.00015271181,0.0080937259,-0.00099262677,0.0,0.0,0.0
14:01:21.724,-3.8464625,0.3999005,9.0200443,0.0059557608,0.017256435,0.015500249,0.0,0.0,0.0
14:01:21.850,-3.8679979,0.38315073,8.9434738,0.014507622,0.065513365,0.01733279,0.0,0.0,0.0
14:01:21.993,-3.918247,0.42143589,9.0176516,0.028557109,0.053907271,0.011224318,0.0,0.0,0.0
14:01:22.107,-3.9254255,0.41904306,8.9530449,0.024892027,0.072232686,-0.001603474,0.0,0.0,0.0
14:01:22.274,-4.0426741,0.50039905,8.8980103,0.022448637,0.039246935,0.0014507623,0.0,0.0,0.0
14:01:22.416,-4.1838503,0.5913263,8.7807617,0.0077883024,-0.018172706,-0.00099262677,0.0,0.0,0.0
14:01:22.626,-4.0833516,0.57457656,8.8932247,0.0041232188,-0.020616096,-0.001603474,0.0,0.0,0.0
14:01:22.760,-4.1216369,0.53868419,8.8860464,0.0035123718,-0.0041232188,-0.0022143214,0.0,0.0,0.0
14:01:22.885,-4.1264229,0.5697909,8.8525467,0.0047340663,0.0044286428,-0.001603474,0.0,0.0,0.0
14:01:23.008,-4.1288157,0.59850478,8.8836536,-0.0080937259,-0.027946262,-0.005879405,0.0,0.0,0.0
14:01:23.203,-4.1407795,0.54107702,8.900403,-0.020310672,-0.014507622,0.0069483877,0.0,0.0,0.0
14:01:23.326,-4.1240296,0.56021959,8.8525467,-0.0019852535,-0.027335415,-0.0071010995,0.0,0.0,0.0
14:01:23.516,-3.9900317,0.45972106,8.8669033,-0.016645588,-0.079257429,-0.024815669,0.0,0.0,0.0
14:01:23.629,-3.9828532,0.45254257,8.9075813,-0.0074828789,-0.03283304,-0.009544488,0.0,0.0,0.0
14:01:23.800,-3.9397824,0.47168517,8.962616,-0.0032069481,-0.016340164,-0.0052685575,0.0,0.0,0.0
14:01:23.919,-3.9110687,0.44297129,8.9793663,0.0053449133,-0.011453386,-0.0077119465,0.0,0.0,0.0
14:01:24.041,-3.8871403,0.42622152,9.003294,0.0083991494,-0.011453386,-0.0052685575,0.0,0.0,0.0
14:01:24.158,-3.8727834,0.44536412,8.9865446,0.0035123718,0.0019852535,0.0014507623,0.0,0.0,0.0
14:01:24.269,-3.8584266,0.44775695,8.9793663,-0.0080937259,0.0062611843,0.0045049987,0.0,0.0,0.0
14:01:24.415,-3.8847475,0.48843491,8.8836536,-0.0019852535,0.0056503373,-0.001603474,0.0,0.0,0.0
14:01:24.554,-3.9469609,0.43100718,8.9339027,0.018783553,0.045966256,0.013667707,0.0,0.0,0.0
14:01:24.723,-3.9373896,0.48843491,8.9386883,0.0059557608,0.019088976,0.0020616094,0.0,0.0,0.0
14:01:24.858,-3.92064,0.50279188,8.9674015,-0.00076355907,0.022143213,0.0081700822,0.0,0.0,0.0
14:01:25.013,-3.987639,0.50518471,8.9051886,-0.0050394898,0.019088976,0.0081700822,0.0,0.0,0.0
14:01:25.126,-3.9517467,0.53629136,8.9482594,-0.00076355907,-0.0047340663,-0.00099262677,0.0,0.0,0.0
14:01:25.270,-3.9756749,0.52432728,8.9171524,-0.0044286428,-0.010842538,-0.00099262677,0.0,0.0,0.0
14:01:25.395,-3.9684963,0.51236314,8.8836536,-0.0050394898,-0.0077883024,-0.001603474,0.0,0.0,0.0
14:01:25.510,-4.0067816,0.50757748,8.8549395,0.0041232188,-0.0035123718,-0.001603474,0.0,0.0,0.0
14:01:25.623,-4.0043888,0.49322057,8.8740816,0.00167983,0.0099262679,0.00083991501,0.0,0.0,0.0
14:01:25.740,-4.0594234,0.50518471,8.8764744,0.021226943,0.0062611843,-0.011987877,0.0,0.0,0.0
14:01:25.858,-3.9613178,0.55543393,8.9291172,-0.0038177953,-0.034665581,-0.012598725,0.0,0.0,0.0
14:01:25.976,-4.0331025,0.56500524,8.8836536,0.0077883024,-0.0090099974,-0.0034360159,0.0,0.0,0.0
14:01:26.091,-4.0091743,0.50279188,8.9362955,0.0193944,-0.010842538,0.0020616094,0.0,0.0,0.0
14:01:26.298,-3.958925,0.54586267,8.9219379,-0.0080937259,-0.013285927,-0.00099262677,0.0,0.0,0.0
14:01:26.426,-4.0091743,0.56021959,8.8645105,-0.0025961008,-0.0029015245,-0.0022143214,0.0,0.0,0.0
14:01:26.542,-3.9780676,0.56500524,8.9027958,-0.0087045738,-0.029167956,-0.0071010995,0.0,0.0,0.0
14:01:26.667,-3.9637108,0.52911294,8.972188,-0.010537115,-0.029778805,-0.0028251687,0.0,0.0,0.0
14:01:26.839,-3.9326041,0.43818563,8.9434738,-0.0074828789,-0.031611346,-0.010155336,0.0,0.0,0.0
14:01:26.958,-3.9254255,0.44297129,8.8932247,-0.021532366,-0.042606596,-0.013820419,0.0,0.0,0.0
14:01:27.071,-3.8225341,0.41665024,8.9961157,-0.00076355907,-0.034665581,-0.0077119465,0.0,0.0,0.0
14:01:27.193,-3.8464625,0.41425741,9.0104723,-0.013591352,-0.069483876,-0.015042114,0.0,0.0,0.0
14:01:27.306,-3.9517467,0.38554356,8.9554377,-0.0062611843,0.01175881,0.0051158457,0.0,0.0,0.0
14:01:27.482,-3.851248,0.36879379,9.0583296,0.00167983,0.0062611843,-0.00038177954,0.0,0.0,0.0
14:01:27.611,-3.7962132,0.39272201,9.0009012,-0.01175881,-0.0059557608,0.0038941512,0.0,0.0,0.0
14:01:27.725,-3.8321054,0.43100718,8.9458666,-0.0056503373,0.0056503373,0.0069483877,0.0,0.0,0.0
14:01:27.843,-3.8344984,0.39750767,8.9458666,0.0041232188,0.0062611843,0.0038941512,0.0,0.0,0.0
14:01:27.956,-3.8751762,0.43818563,9.0200443,0.0041232188,0.031916771,0.0057266932,0.0,0.0,0.0
14:01:28.071,-3.8560338,0.41186461,8.9817591,0.0041232188,0.0068720318,-0.00099262677,0.0,0.0,0.0
14:01:28.186,-3.9038901,0.40468612,9.003294,0.010231691,-0.0065666079,-0.0071010995,0.0,0.0,0.0
14:01:28.310,-3.8967116,0.42861435,9.0367937,-0.0093154209,-0.013285927,0.0087809293,0.0,0.0,0.0
14:01:28.435,-3.8608193,0.4549354,9.0248299,0.017561859,0.030084228,0.0093917763,0.0,0.0,0.0
14:01:28.543,-3.8584266,0.46689951,8.9602232,0.0010689828,-0.018783553,-0.006490252,0.0,0.0,0.0
14:01:28.709,-3.8847475,0.46450669,8.9506521,0.0041232188,-0.013896775,-0.0034360159,0.0,0.0,0.0
14:01:28.856,-3.9158542,0.42622152,8.9482594,0.0035123718,0.0013744063,-0.0022143214,0.0,0.0,0.0
14:01:28.993,-3.9134614,0.4549354,8.9243307,0.0071774554,0.0032069481,0.00022906772,0.0,0.0,0.0
14:01:29.109,-3.8967116,0.46689951,8.9865446,-0.0013744063,0.012980504,-0.00038177954,0.0,0.0,0.0
14:01:29.244,-3.9134614,0.48125646,8.9458666,0.00045813544,0.0032069481,-0.00099262677,0.0,0.0,0.0
14:01:29.384,-3.9254255,0.4764708,8.9913301,0.00045813544,0.011147963,-0.00038177954,0.0,0.0,0.0
14:01:29.525,-3.8560338,0.46689951,9.0224371,0.00045813544,0.011147963,0.0020616094,0.0,0.0,0.0
14:01:29.634,-3.9110687,0.46211389,8.9937229,-0.025808297,0.043522868,0.022830416,0.0,0.0,0.0
14:01:29.743,-3.851248,0.44536412,9.0391865,0.011453386,0.030695075,0.0051158457,0.0,0.0,0.0
14:01:29.860,-3.8943188,0.42622152,8.8932247,-0.020310672,-0.031611346,-0.008933641,0.0,0.0,0.0
14:01:30.019,-3.8632121,0.44775695,8.8836536,-0.012369657,-0.040163208,-0.016263809,0.0,0.0,0.0
14:01:30.135,-3.8679979,0.40947178,8.9530449,0.0022906773,-0.015729317,-0.009544488,0.0,0.0,0.0
14:01:30.255,-3.851248,0.42382872,8.972188,-0.010537115,-0.024892027,-0.006490252,0.0,0.0,0.0
14:01:30.365,-3.8536408,0.40468612,8.9434738,0.0071774554,0.0062611843,-0.0022143214,0.0,0.0,0.0
14:01:30.507,-3.8225341,0.40707895,8.9985085,0.0053449133,0.0025961008,0.00083991501,0.0,0.0,0.0
14:01:30.625,-3.8392839,0.42622152,9.0009012,0.0083991494,-0.0010689828,0.00083991501,0.0,0.0,0.0
14:01:30.769,-3.8967116,0.34725839,8.9985085,-0.00015271181,-0.00167983,-0.0022143214,0.0,0.0,0.0
14:01:30.892,-3.8823547,0.40229329,9.003294,-0.0019852535,0.050853033,0.018554486,0.0,0.0,0.0
14:01:31.043,-3.9278183,0.41904306,8.8381891,0.041384902,0.04718795,0.013667707,0.0,0.0,0.0
14:01:31.159,-3.8368912,0.46929234,8.9985085,0.0022906773,0.0044286428,0.0020616094,0.0,0.0,0.0
14:01:31.279,-3.92064,0.51236314,8.8908319,0.01267508,-0.0041232188,-0.0052685575,0.0,0.0,0.0
14:01:31.408,-3.92064,0.44057846,8.9889374,0.014507622,0.0044286428,-0.0034360159,0.0,0.0,0.0
14:01:31.526,-3.9302113,0.50997031,8.9865446,0.0047340663,0.017256435,-0.00038177954,0.0,0.0,0.0
14:01:31.650,-3.9421754,0.51236314,8.93151,0.0053449133,0.014813046,-0.001603474,0.0,0.0,0.0
14:01:31.786,-3.9326041,0.51475596,8.9458666,0.0059557608,0.0050394898,-0.0022143214,0.0,0.0,0.0
14:01:31.907,-3.9445682,0.55782676,8.8980103,0.023059484,0.036803547,-0.008933641,0.0,0.0,0.0
14:01:32.043,-3.8416767,0.88325065,8.8836536,0.1757713,-0.24724042,-0.095673949,0.0,0.0,0.0
14:01:32.186,-3.4660037,-0.059521463,8.4888372,-0.33672956,-0.12995775,0.032603972,0.0,0.0,0.0
14:01:32.324,-3.6765721,0.40947178,8.6084785,-0.034360159,0.33489701,0.16882291,0.0,0.0,0.0
14:01:32.461,-4.2006001,0.34965122,9.268898,-0.37826717,0.37887803,0.02893889,0.0,0.0,0.0
14:01:32.593,-4.6002016,0.34725839,8.3620176,0.15133741,-0.18798824,-0.038865156,0.0,0.0,0.0
14:01:32.702,-4.1790648,-0.29641092,8.5749788,0.0053449133,-0.19531842,-0.005879405,0.0,0.0,0.0
14:01:32.823,-3.7363925,-0.22941187,9.0344009,0.034665581,-0.097582847,0.033825666,0.0,0.0,0.0
14:01:32.935,-4.2340999,0.052941199,8.9339027,0.054212693,0.039246935,0.01305686,0.0,0.0,0.0
14:01:33.057,-4.1072803,0.029012974,8.8310108,-0.047798797,-0.030389652,0.0093917763,0.0,0.0,0.0
14:01:33.172,-4.0450668,0.10319047,8.8549395,0.0193944,0.017867282,0.0032833039,0.0,0.0,0.0
14:01:33.273,-4.1024942,0.10079765,8.7783689,0.050547611,0.021532366,-0.008933641,0.0,0.0,0.0
14:01:33.393,-3.9062829,2.551048,8.6419783,-0.12171131,0.11926793,-0.016263809,0.0,0.0,0.0
14:01:33.534,-5.9928241,-1.5622141,6.0409799,0.65101045,0.077730313,0.05092939,0.0,0.0,0.0
14:01:33.651,-3.3008988,-0.30358937,8.5582294,0.55755085,-1.5044404,-0.15431529,0.0,0.0,0.0
14:01:33.771,-4.688736,1.4431711,8.4146595,0.093917765,0.55846709,0.18959172,0.0,0.0,0.0
14:01:33.899,-4.7820559,0.89760756,8.7376909,0.0090099974,0.29397026,0.10529479,0.0,0.0,0.0
14:01:34.013,-4.135994,0.74446696,8.5893364,0.0035123718,-0.0029015245,-0.03397838,0.0,0.0,0.0
14:01:34.123,-4.3824549,0.68943202,8.7257271,-0.059404895,-0.20509197,-0.043751936,0.0,0.0,0.0
14:01:34.255,-4.2652063,0.80189466,8.7664051,-0.096055731,0.031916771,-0.0052685575,0.0,0.0,0.0
14:01:34.378,-4.5116673,0.878465,8.450552,0.027946262,0.060626589,0.0081700822,0.0,0.0,0.0
14:01:34.509,-4.7318068,0.5482555,8.5582294,-0.050853033,0.066124216,0.017943637,0.0,0.0,0.0
14:01:34.613,-4.4183469,0.72293156,8.7520475,-0.0093154209,-0.010231691,0.0051158457,0.0,0.0,0.0
14:01:34.735,-4.0761733,0.58175498,8.4720879,-0.023975754,-0.11102149,-0.022372281,0.0,0.0,0.0
14:01:34.919,-4.3106699,0.75643104,8.4960155,0.062764555,-0.042606596,-0.01565296,0.0,0.0,0.0
14:01:35.047,-4.325027,0.79471624,8.6730852,0.084755056,-0.0193944,-0.024815669,0.0,0.0,0.0
14:01:35.158,-4.0450668,0.94546407,9.3071823,0.034665581,0.082006246,0.031382278,0.0,0.0,0.0
14:01:35.298,-4.4829531,0.67028946,8.3931246,0.18187977,0.014813046,0.038712446,0.0,0.0,0.0
14:01:35.419,-4.4853458,0.78514493,8.5008011,0.037108973,-0.010842538,-0.009544488,0.0,0.0,0.0
14:01:35.556,-4.3633122,0.93349993,8.7400837,0.048104223,-0.026724568,-0.010766183,0.0,0.0,0.0
14:01:35.663,-4.4925246,0.83300138,8.7376909,-0.042912021,-0.039552361,-0.010766183,0.0,0.0,0.0
14:01:35.800,-4.3704906,0.90000039,8.5821571,-0.031916771,-0.068262182,-0.012598725,0.0,0.0,0.0
14:01:35.905,-4.2293139,1.0220344,9.3670034,-0.29458109,-0.10063709,0.01977618,0.0,0.0,0.0
14:01:36.058,-4.4111686,0.79232341,9.0367937,0.034665581,-0.12323844,-0.0028251687,0.0,0.0,0.0
14:01:36.251,-4.4111686,0.79232341,9.0367937,0.034665581,-0.12323844,-0.0028251687,0.0,0.0,0.0
14:01:36.423,-4.4111686,0.79232341,9.0367937,0.034665581,-0.12323844,-0.0028251687,0.0,0.0,0.0
14:01:36.550,-4.4111686,0.79232341,9.0367937,0.034665581,-0.12323844,-0.0028251687,0.0,0.0,0.0
14:01:36.695,-4.4111686,0.79232341,9.0367937,0.034665581,-0.12323844,-0.0028251687,0.0,0.0,0.0
14:01:36.813,-4.4111686,0.79232341,9.0367937,0.034665581,-0.12323844,-0.0028251687,0.0,0.0,0.0
14:01:36.943,-4.4111686,0.79232341,9.0367937,0.034665581,-0.12323844,-0.0028251687,0.0,0.0,0.0
14:01:37.081,-4.4111686,0.79232341,9.0367937,0.034665581,-0.12323844,-0.0028251687,0.0,0.0,0.0
14:01:37.405,-4.4111686,0.79232341,9.0367937,0.034665581,-0.12323844,-0.0028251687,0.0,0.0,0.0
14:01:37.533,-4.4111686,0.79232341,9.0367937,0.034665581,-0.12323844,-0.0028251687,0.0,0.0,0.0
14:01:37.674,-4.4111686,0.79232341,9.0367937,0.034665581,-0.12323844,-0.0028251687,0.0,0.0,0.0
14:01:37.800,-4.4111686,0.79232341,9.0367937,0.034665581,-0.12323844,-0.0028251687,0.0,0.0,0.0
14:01:37.916,-4.4111686,0.79232341,9.0367937,0.034665581,-0.12323844,-0.0028251687,0.0,0.0,0.0
14:01:38.028,-4.4111686,0.79232341,9.0367937,0.034665581,-0.12323844,-0.0028251687,0.0,0.0,0.0
14:01:38.158,-4.4111686,0.79232341,9.0367937,0.034665581,-0.12323844,-0.0028251687,0.0,0.0,0.0
14:01:38.273,-4.4111686,0.79232341,9.0367937,0.034665581,-0.12323844,-0.0028251687,0.0,0.0,0.0
14:01:38.396,-4.4111686,0.79232341,9.0367937,0.034665581,-0.12323844,-0.0028251687,0.0,0.0,0.0
14:01:38.512,-4.4111686,0.79232341,9.0367937,0.034665581,-0.12323844,-0.0028251687,0.0,0.0,0.0
14:01:38.618,-4.4111686,0.79232341,9.0367937,0.034665581,-0.12323844,-0.0028251687,0.0,0.0,0.0
14:01:38.744,-4.4111686,0.79232341,9.0367937,0.034665581,-0.12323844,-0.0028251687,0.0,0.0,0.0
14:01:38.867,-4.4111686,0.79232341,9.0367937,0.034665581,-0.12323844,-0.0028251687,0.0,0.0,0.0
14:01:38.993,-4.4111686,0.79232341,9.0367937,0.034665581,-0.12323844,-0.0028251687,0.0,0.0,0.0
14:01:39.201,-4.4111686,0.79232341,9.0367937,0.034665581,-0.12323844,-0.0028251687,0.0,0.0,0.0
14:01:39.325,-4.4111686,0.79232341,9.0367937,0.034665581,-0.12323844,-0.0028251687,0.0,0.0,0.0
14:01:39.477,-4.4111686,0.79232341,9.0367937,0.034665581,-0.12323844,-0.0028251687,0.0,0.0,0.0
14:01:39.632,-4.4111686,0.79232341,9.0367937,0.034665581,-0.12323844,-0.0028251687,0.0,0.0,0.0
14:01:39.761,-2.3078775,1.2397813,9.4579306,0.3541387,0.18523943,-0.20501561,0.0,0.0,0.0
14:01:39.885,-3.3056846,1.5556338,8.828618,0.30527091,0.19989976,-0.25266171,0.0,0.0,0.0
14:01:40.033,-3.080759,1.8188443,9.4914303,0.49157932,0.55785626,-0.22700611,0.0,0.0,0.0
14:01:40.162,-3.0472596,1.6010975,9.268898,-0.4497363,-0.28694549,-0.18180342,0.0,0.0,0.0
14:01:40.304,-3.0496526,1.4527425,9.2138624,0.13728791,0.082617089,-0.19524206,0.0,0.0,0.0
14:01:40.409,-3.2817562,1.3833506,9.1396856,0.041384902,-0.10430217,-0.18546849,0.0,0.0,0.0
14:01:40.661,-3.1453655,1.3689936,9.1396856,0.010231691,-0.0071774554,-0.085900396,0.0,0.0,0.0
14:01:40.773,-3.21715,1.4120644,9.1085787,-0.0050394898,0.053907271,-0.037032615,0.0,0.0,0.0
14:01:40.874,-3.2243285,1.3977076,9.1827564,-0.0074828789,0.031916771,-0.011987877,0.0,0.0,0.0
14:01:40.999,-3.2530425,1.4216357,9.0966148,0.0065666079,0.016034741,0.0075592347,0.0,0.0,0.0
14:01:41.136,-3.2123644,1.4240286,9.0918283,0.01267508,-0.016951011,0.020387027,0.0,0.0,0.0
14:01:41.397,-3.2434711,1.3689936,9.1851492,0.010842538,-0.0053449133,0.031382278,0.0,0.0,0.0
14:01:41.515,-3.3535409,1.4718851,9.0272226,0.0029015245,0.027029991,0.028328042,0.0,0.0,0.0
14:01:41.637,-3.3774691,1.4503496,9.043972,0.016951011,0.00015271181,0.011224318,0.0,0.0,0.0
14:01:41.753,-3.3008988,1.4383855,9.115757,-0.0044286428,0.0062611843,0.0075592347,0.0,0.0,0.0
14:01:41.863,-3.2697921,1.445564,9.1301136,0.015729317,-0.0083991494,-0.00099262677,0.0,0.0,0.0
14:01:41.993,-3.2769706,1.4383855,9.1612206,-0.012369657,0.038025241,0.0051158457,0.0,0.0,0.0
14:01:42.114,-3.3583267,1.5508481,9.1516495,0.010231691,0.12659809,0.010613471,0.0,0.0,0.0
14:01:42.275,-3.4827533,1.5029917,8.9674015,0.0035123718,0.0038177953,-0.00099262677,0.0,0.0,0.0
14:01:42.407,-3.4396825,1.4407784,9.0583296,-0.0038177953,-0.03771982,-0.0040468629,0.0,0.0,0.0
14:01:42.527,-3.4205399,1.5029917,9.0487576,-0.016645588,-0.0047340663,0.0014507623,0.0,0.0,0.0
14:01:42.648,-3.4540396,1.4575281,9.156435,-0.0056503373,-0.020005248,-0.0077119465,0.0,0.0,0.0
14:01:42.768,-3.406183,1.4407784,9.0679007,-0.028862532,-0.10246963,-0.018707197,0.0,0.0,0.0
14:01:42.889,-3.4396825,1.3857434,8.962616,-0.0044286428,-0.028557109,-0.008933641,0.0,0.0,0.0
14:01:43.001,-3.3415768,1.3977076,9.0870428,-0.0050394898,-0.041384902,-0.0028251687,0.0,0.0,0.0
14:01:43.117,-3.3559337,1.4120644,9.1707916,-0.01175881,-0.046882529,-0.013209572,0.0,0.0,0.0
14:01:43.258,-3.2889347,1.3594223,9.0607224,0.0047340663,0.027029991,0.0020616094,0.0,0.0,0.0
14:01:43.395,-3.2721848,1.4335998,9.1253281,0.0071774554,0.027640838,-0.00038177954,0.0,0.0,0.0
14:01:43.517,-3.3487554,1.4001004,9.0655079,0.020005248,0.012980504,-0.0022143214,0.0,0.0,0.0
14:01:43.643,-3.3320055,1.4072788,9.0344009,0.010842538,0.01175881,0.0038941512,0.0,0.0,0.0
14:01:43.754,-3.3487554,1.3857434,9.08465,0.013285927,0.0013744063,-0.00038177954,0.0,0.0,0.0
14:01:43.873,-3.3415768,1.3857434,9.1085787,0.0010689828,-0.0090099974,-0.0022143214,0.0,0.0,0.0
14:01:43.995,-3.32722,1.3929219,9.3167543,0.072538115,0.044133715,0.0038941512,0.0,0.0,0.0
14:01:44.108,-3.2386854,1.4790635,9.300004,-0.051463883,0.035581853,0.0020616094,0.0,0.0,0.0
14:01:44.228,-3.3631122,1.4120644,8.9099741,0.035276428,0.017867282,0.0038941512,0.0,0.0,0.0
14:01:44.343,-3.3702908,1.4407784,8.9961157,-0.014813046,-0.016340164,-0.0040468629,0.0,0.0,0.0
14:01:44.467,-3.4109688,1.3546367,9.3382893,0.048104223,0.0074828789,-0.017485503,0.0,0.0,0.0
14:01:44.615,-3.4660037,1.3498511,9.197113,0.066429637,0.02275406,0.0045049987,0.0,0.0,0.0
14:01:44.724,-3.4660037,1.3498511,9.197113,0.066429637,0.02275406,0.0045049987,0.0,0.0,0.0
14:01:44.871,-3.4660037,1.3498511,9.197113,0.066429637,0.02275406,0.0045049987,0.0,0.0,0.0
14:01:45.054,-3.4660037,1.3498511,9.197113,0.066429637,0.02275406,0.0045049987,0.0,0.0,0.0
14:01:45.174,-3.4660037,1.3498511,9.197113,0.066429637,0.02275406,0.0045049987,0.0,0.0,0.0
14:01:45.295,-3.4660037,1.3498511,9.197113,0.066429637,0.02275406,0.0045049987,0.0,0.0,0.0
14:01:45.413,-3.4660037,1.3498511,9.197113,0.066429637,0.02275406,0.0045049987,0.0,0.0,0.0
14:01:45.548,-3.4660037,1.3498511,9.197113,0.066429637,0.02275406,0.0045049987,0.0,0.0,0.0
14:01:45.677,-3.4660037,1.3498511,9.197113,0.066429637,0.02275406,0.0045049987,0.0,0.0,0.0
14:01:45.793,-3.4660037,1.3498511,9.197113,0.066429637,0.02275406,0.0045049987,0.0,0.0,0.0
14:01:45.913,-3.4660037,1.3498511,9.197113,0.066429637,0.02275406,0.0045049987,0.0,0.0,0.0
14:01:46.057,-3.4660037,1.3498511,9.197113,0.066429637,0.02275406,0.0045049987,0.0,0.0,0.0
14:01:46.177,-3.4660037,1.3498511,9.197113,0.066429637,0.02275406,0.0045049987,0.0,0.0,0.0
14:01:46.420,-3.4660037,1.3498511,9.197113,0.066429637,0.02275406,0.0045049987,0.0,0.0,0.0
14:01:46.553,-3.4660037,1.3498511,9.197113,0.066429637,0.02275406,0.0045049987,0.0,0.0,0.0
14:01:46.663,-3.4660037,1.3498511,9.197113,0.066429637,0.02275406,0.0045049987,0.0,0.0,0.0
14:01:46.808,-3.4660037,1.3498511,9.197113,0.066429637,0.02275406,0.0045049987,0.0,0.0,0.0
14:01:46.916,-3.4660037,1.3498511,9.197113,0.066429637,0.02275406,0.0045049987,0.0,0.0,0.0
14:01:47.079,-3.4660037,1.3498511,9.197113,0.066429637,0.02275406,0.0045049987,0.0,0.0,0.0
14:01:47.193,-3.4660037,1.3498511,9.197113,0.066429637,0.02275406,0.0045049987,0.0,0.0,0.0
14:01:47.310,-3.4660037,1.3498511,9.197113,0.066429637,0.02275406,0.0045049987,0.0,0.0,0.0
14:01:47.443,-3.4660037,1.3498511,9.197113,0.066429637,0.02275406,0.0045049987,0.0,0.0,0.0
14:01:47.565,-3.4660037,1.3498511,9.197113,0.066429637,0.02275406,0.0045049987,0.0,0.0,0.0
14:01:47.693,-3.4660037,1.3498511,9.197113,0.066429637,0.02275406,0.0045049987,0.0,0.0,0.0
14:01:47.825,-3.4660037,1.3498511,9.197113,0.066429637,0.02275406,0.0045049987,0.0,0.0,0.0
14:01:47.959,-3.4660037,1.3498511,9.197113,0.066429637,0.02275406,0.0045049987,0.0,0.0,0.0
14:01:48.094,-3.4660037,1.3498511,9.197113,0.066429637,0.02275406,0.0045049987,0.0,0.0,0.0
14:01:48.229,-3.4660037,1.3498511,9.197113,0.066429637,0.02275406,0.0045049987,0.0,0.0,0.0
14:01:48.363,-3.4660037,1.3498511,9.197113,0.066429637,0.02275406,0.0045049987,0.0,0.0,0.0
14:01:48.703,-3.7603209,1.4862419,8.6324072,-0.013591352,-0.039552361,-0.00099262677,0.0,0.0,0.0
14:01:48.817,-3.6741791,1.4718851,9.0176516,0.016340164,0.00076355907,-0.0034360159,0.0,0.0,0.0
14:01:48.934,-3.7842491,1.4647065,8.9243307,-0.0050394898,-0.020616096,0.0014507623,0.0,0.0,0.0
14:01:49.057,-3.7100716,1.7566309,9.0559368,0.082922518,-0.17271706,-0.045584477,0.0,0.0,0.0
14:01:49.183,-3.62393,1.4694922,8.9889374,-0.036803547,-0.046271678,0.018554486,0.0,0.0,0.0
14:01:49.292,-3.3822548,0.75403821,9.0822573,-0.27320144,0.09910997,0.10468395,0.0,0.0,0.0
14:01:49.411,-2.9635108,1.2326027,9.6948204,-0.013591352,-0.0645971,0.025273805,0.0,0.0,0.0
14:01:49.542,-3.0113673,0.92153585,9.2952185,-0.11743539,-0.20387027,0.01733279,0.0,0.0,0.0
14:01:49.657,-3.4564323,1.242174,9.053544,0.12384928,-0.21120045,-0.084067851,0.0,0.0,0.0
14:01:49.769,-2.8271201,1.0770693,9.2042913,-0.10888352,-0.095139459,-0.03397838,0.0,0.0,0.0
14:01:49.893,-2.4634109,0.99332052,9.259326,0.00167983,0.035581853,0.022219568,0.0,0.0,0.0
14:01:50.006,-2.7337999,1.1584252,9.4052887,-0.026419144,0.17607673,0.038712446,0.0,0.0,0.0
14:01:50.143,-3.0472596,1.2517453,8.9961157,0.023059484,0.013591352,0.0020616094,0.0,0.0,0.0
14:01:50.387,-3.0065815,1.1943176,9.1085787,-0.020310672,-0.027946262,0.0045049987,0.0,0.0,0.0
14:01:50.508,-2.9012976,1.215853,9.2401838,0.015729317,0.055739813,0.00022906772,0.0,0.0,0.0
14:01:50.622,-2.9036903,1.093819,9.2904329,0.023670331,0.060015742,0.0045049987,0.0,0.0,0.0
14:01:50.747,-3.0305099,1.3139588,9.3191471,0.11529742,0.14675605,-0.022983128,0.0,0.0,0.0
14:01:50.866,-3.3798621,1.4838492,9.0080795,0.034665581,0.092390649,-0.0077119465,0.0,0.0,0.0
14:01:50.993,-2.6763721,1.0698909,9.5608215,0.035276428,-0.20020519,-0.049860407,0.0,0.0,0.0
14:01:51.128,-4.2077785,1.364208,9.1660061,0.12323844,0.64337486,-0.024204822,0.0,0.0,0.0
14:01:51.257,-3.6502509,1.5723835,9.2976112,0.07009472,-0.10674556,-0.090787172,0.0,0.0,0.0
14:01:51.379,-3.6574295,1.3953147,8.6898346,0.14339639,0.041690327,0.0045049987,0.0,0.0,0.0
14:01:51.493,-3.5401812,1.3833506,9.2904329,-0.016645588,-0.05971032,0.022219568,0.0,0.0,0.0
14:01:51.611,-3.8632121,1.593919,8.4768734,0.031000499,-0.039552361,0.099797174,0.0,0.0,0.0
14:01:51.743,-3.8656049,1.7590238,8.962616,-0.098499119,-0.087809294,0.02893889,0.0,0.0,0.0
14:01:51.875,-3.6957145,1.6992031,8.8908319,-0.013591352,-0.041384902,-0.041308545,0.0,0.0,0.0
14:01:51.995,-3.4995031,1.4096717,9.0870428,-0.0080937259,0.026419144,-0.024815669,0.0,0.0,0.0
14:01:52.109,-3.621537,1.4694922,9.0248299,0.027946262,0.050853033,-0.008933641,0.0,0.0,0.0
14:01:52.258,-3.7459638,1.4958133,8.7352982,-0.17424418,0.018478129,0.045431767,0.0,0.0,0.0
14:01:52.382,-3.772285,1.4288142,8.7281199,0.023059484,-0.0047340663,-0.0052685575,0.0,0.0,0.0
14:01:52.515,-3.4636109,1.2062817,9.9771729,-0.1693574,-0.21058959,-0.023593975,0.0,0.0,0.0
14:01:52.674,-3.2697921,1.9025931,6.5386868,0.18004723,-0.17027368,-0.030313294,0.0,0.0,0.0
14:01:52.776,-3.8895333,1.9360926,8.5103731,-0.20173231,-0.015729317,0.076584972,0.0,0.0,0.0
14:01:52.893,-3.8153558,1.538884,9.0224371,0.140953,0.18401773,0.0063375402,0.0,0.0,0.0
14:01:53.019,-3.62393,1.3259228,8.3668032,-0.3813214,-0.31932041,0.024052111,0.0,0.0,0.0
14:01:53.143,-3.8560338,1.4910276,9.0415792,0.074981503,0.042301174,-0.021150587,0.0,0.0,0.0
14:01:53.259,-3.8009987,1.4072788,8.8022976,-0.014813046,0.016034741,-0.005879405,0.0,0.0,0.0
14:01:53.382,-3.9158542,1.5005989,8.9099741,0.07070557,0.14003673,0.0057266932,0.0,0.0,0.0
14:01:53.559,-3.9469609,1.6010975,8.859725,-0.010537115,0.014202199,-0.001603474,0.0,0.0,0.0
14:01:53.675,-4.0498524,1.5436697,8.4696951,-0.14309096,-0.072538115,0.0032833039,0.0,0.0,0.0
14:01:53.796,-3.9828532,1.3953147,8.9267244,-0.046577103,-0.033443887,0.00083991501,0.0,0.0,0.0
14:01:53.912,-4.1623149,1.7566309,9.4914303,0.063986249,0.16996825,0.063757181,0.0,0.0,0.0
14:01:54.029,-3.8703907,1.512563,8.4649096,0.0047340663,-0.047493376,-0.065742433,0.0,0.0,0.0
14:01:54.185,-3.8392839,1.660918,8.8118687,0.11224318,0.033138465,-0.00099262677,0.0,0.0,0.0
14:01:54.293,-3.9445682,1.6585252,8.9267244,-0.063069977,0.016645588,-0.0034360159,0.0,0.0,0.0
14:01:54.453,-3.62393,1.971985,9.6732845,0.19837265,0.064291671,-0.033367533,0.0,0.0,0.0
14:01:54.569,-3.7339997,1.6704893,9.0702934,-0.077730313,-0.066429637,0.0057266932,0.0,0.0,0.0
14:01:54.681,-3.92064,1.6824534,8.5893364,-0.033749312,0.059404895,0.022219568,0.0,0.0,0.0
14:01:54.827,-4.0354953,1.7662022,8.9291172,-0.53769833,0.24388076,0.2836622,0.0,0.0,0.0
14:01:54.945,-4.8610191,0.67028946,8.1323071,-0.54991525,0.11804623,0.011835165,0.0,0.0,0.0
14:01:55.056,-5.4472609,0.11994024,8.5343008,-0.34894648,0.10094251,0.11812259,0.0,0.0,0.0
14:01:55.187,-4.9304109,0.019441685,9.053544,-0.19745637,0.23410721,0.12911785,0.0,0.0,0.0
14:01:59.125,-5.1361938,1.2900305,8.3380899,-0.05635066,0.012980504,0.0020616094,0.0,0.0,0.0
14:01:59.261,-5.0380878,1.2828521,8.2686977,0.0090099974,0.0044286428,0.00022906772,0.0,0.0,0.0
14:01:59.368,-5.0333023,1.2852448,8.2040911,0.012064233,-0.0065666079,-0.0071010995,0.0,0.0,0.0
14:01:59.488,-5.1098728,1.2613167,8.1705923,0.0077883024,0.0080937259,-0.00038177954,0.0,0.0,0.0
14:01:59.611,-5.0811591,1.2780664,8.1801634,0.0035123718,0.014202199,-0.0028251687,0.0,0.0,0.0
14:01:59.744,-5.0739803,1.3067802,8.1394854,-0.0038177953,0.0099262679,0.00022906772,0.0,0.0,0.0
14:01:59.859,-5.0644093,1.3211372,8.2806616,-0.0025961008,0.012369657,0.0057266932,0.0,0.0,0.0
14:01:59.962,-5.0739803,1.2924234,8.2567339,-0.033749312,-0.023059484,-0.0022143214,0.0,0.0,0.0
14:02:00.093,-5.066802,1.2924234,8.1849489,0.020616096,-0.0077883024,-0.0028251687,0.0,0.0,0.0
14:02:00.212,-5.0811591,1.2924234,8.2423763,0.0010689828,0.0032069481,-0.0022143214,0.0,0.0,0.0
14:02:00.313,-5.0763731,1.3546367,8.3165541,-0.018478129,-0.0071774554,-0.001603474,0.0,0.0,0.0
14:02:00.436,-5.0356951,1.2589238,8.3500538,-0.074065231,-0.045660831,-0.005879405,0.0,0.0,0.0
14:02:00.557,-5.0333023,1.2517453,8.3763752,0.018783553,-0.030389652,0.016721943,0.0,0.0,0.0
14:02:00.693,-5.1936216,1.1727822,7.9911304,-0.02519745,0.012980504,0.022219568,0.0,0.0,0.0
14:02:00.811,-5.1936216,1.1727822,7.9911304,-0.02519745,0.012980504,0.022219568,0.0,0.0,0.0
14:02:00.935,-5.1936216,1.1727822,7.9911304,-0.02519745,0.012980504,0.022219568,0.0,0.0,0.0
14:02:01.043,-5.1936216,1.1727822,7.9911304,-0.02519745,0.012980504,0.022219568,0.0,0.0,0.0
14:02:01.167,-5.1936216,1.1727822,7.9911304,-0.02519745,0.012980504,0.022219568,0.0,0.0,0.0
14:02:01.274,-5.1936216,1.1727822,7.9911304,-0.02519745,0.012980504,0.022219568,0.0,0.0,0.0
14:02:01.406,-5.1936216,1.1727822,7.9911304,-0.02519745,0.012980504,0.022219568,0.0,0.0,0.0
14:02:01.520,-5.1936216,1.1727822,7.9911304,-0.02519745,0.012980504,0.022219568,0.0,0.0,0.0
14:02:01.634,-5.1936216,1.1727822,7.9911304,-0.02519745,0.012980504,0.022219568,0.0,0.0,0.0
14:02:01.743,-5.1936216,1.1727822,7.9911304,-0.02519745,0.012980504,0.022219568,0.0,0.0,0.0
14:02:01.858,-5.1936216,1.1727822,7.9911304,-0.02519745,0.012980504,0.022219568,0.0,0.0,0.0
14:02:01.973,-5.1936216,1.1727822,7.9911304,-0.02519745,0.012980504,0.022219568,0.0,0.0,0.0
14:02:02.093,-5.1936216,1.1727822,7.9911304,-0.02519745,0.012980504,0.022219568,0.0,0.0,0.0
14:02:02.212,-5.1936216,1.1727822,7.9911304,-0.02519745,0.012980504,0.022219568,0.0,0.0,0.0
14:02:02.347,-5.1936216,1.1727822,7.9911304,-0.02519745,0.012980504,0.022219568,0.0,0.0,0.0
14:02:02.469,-5.1936216,1.1727822,7.9911304,-0.02519745,0.012980504,0.022219568,0.0,0.0,0.0
14:02:02.586,-5.1936216,1.1727822,7.9911304,-0.02519745,0.012980504,0.022219568,0.0,0.0,0.0
14:09:37.302,0.063409798,0.45014977,9.8001041,0.0022906773,0.00076355907,0.00083991501,0.0,0.0,0.0
14:09:37.528,0.061016977,0.45972106,9.7977114,0.00167983,0.00076355907,0.00083991501,0.0,0.0,0.0
14:09:37.648,0.068195447,0.45732823,9.7929258,0.00167983,0.00076355907,0.00083991501,0.0,0.0,0.0
14:09:37.781,0.051445685,0.45014977,9.7953186,0.00167983,0.00076355907,0.00083991501,0.0,0.0,0.0
14:09:37.895,0.061016977,0.45254257,9.8144608,0.0022906773,0.00076355907,0.00083991501,0.0,0.0,0.0
14:09:38.056,0.063409798,0.44297129,9.8001041,0.00045813544,0.00015271181,0.0014507623,0.0,0.0,0.0
14:09:38.186,0.063409798,0.4549354,9.8240328,0.00167983,0.0019852535,0.0014507623,0.0,0.0,0.0
14:09:38.319,0.061016977,0.45732823,9.7953186,0.00045813544,0.00076355907,0.00083991501,0.0,0.0,0.0
14:09:38.430,0.056231331,0.44297129,9.812068,0.00167983,0.0013744063,0.00083991501,0.0,0.0,0.0
14:09:38.544,0.05383851,0.4764708,9.812068,0.0010689828,0.00076355907,0.00022906772,0.0,0.0,0.0
14:09:38.696,0.058624156,0.44775695,9.82164,0.0010689828,0.00076355907,0.00083991501,0.0,0.0,0.0
14:09:38.822,0.065802626,0.4549354,9.8096752,0.00167983,0.0013744063,0.00083991501,0.0,0.0,0.0
14:09:38.948,0.05383851,0.46211389,9.8024969,0.0010689828,0.0013744063,0.00083991501,0.0,0.0,0.0
14:09:39.070,0.072981089,0.47168517,9.812068,0.0022906773,0.0013744063,-0.00038177954,0.0,0.0,0.0
14:09:39.191,0.068195447,0.44057846,9.8048897,-0.0025961008,0.00015271181,0.0014507623,0.0,0.0,0.0
14:09:39.321,0.058624156,0.45732823,9.8001041,0.00045813544,0.00076355907,0.00083991501,0.0,0.0,0.0
14:09:39.451,0.063409798,0.43818563,9.8096752,0.0010689828,0.00015271181,0.00083991501,0.0,0.0,0.0
14:09:39.565,0.072981089,0.44297129,9.7977114,0.0010689828,0.0019852535,0.0014507623,0.0,0.0,0.0
14:09:39.694,0.070588268,0.45972106,9.8144608,-0.0044286428,-0.012064233,-0.0022143214,0.0,0.0,0.0
14:09:39.803,-2.2863421,-3.7947176,9.2976112,-0.5285356,0.68307996,-0.071850911,0.0,0.0,0.0
14:09:39.945,1.3651053,-0.60747784,10.900803,-1.2395618,0.45645562,0.55121332,0.0,0.0,0.0
14:09:40.076,-4.8705907,-0.72472614,8.7640123,-0.82907242,0.81441212,-1.20314,0.0,0.0,0.0
14:09:40.207,1.4656038,-4.2661037,14.863317,1.7671047,-2.1806483,-0.68575239,0.0,0.0,0.0
14:09:40.323,-0.38404804,-1.7368901,17.153248,3.1097469,1.6726525,-0.83052319,0.0,0.0,0.0
14:09:40.456,0.2117648,-0.56201422,7.3115687,3.9533272,3.8290198,0.99713176,0.0,0.0,0.0
14:09:40.565,7.7850485,-3.1941192,-8.000103,1.2362021,0.96223712,0.28549474,0.0,0.0,0.0
14:09:40.696,4.2125645,6.6020966,3.4280176,-1.8388793,-2.5135601,0.49990213,0.0,0.0,0.0
14:09:40.818,2.922833,16.706987,16.746468,-1.4296117,-1.1788589,-0.78348798,0.0,0.0,0.0
14:09:40.944,-3.999603,3.319144,15.614663,1.3596697,2.6726859,-5.2043424,0.0,0.0,0.0
14:09:41.056,-24.230919,-1.009472,8.306983,0.87580228,3.5132117,-1.936844,0.0,0.0,0.0
14:09:41.164,0.10408778,-2.5959134,6.7420769,-0.18829367,1.9878497,2.6159534,0.0,0.0,0.0
14:09:41.295,9.5246305,2.6252255,-5.5163536,-0.049020492,-0.93879586,-0.15003936,0.0,0.0,0.0
14:09:41.406,-7.5673018,9.2724867,8.7664051,-1.808337,-2.2887683,-1.5752224,0.0,0.0,0.0
14:09:41.527,-25.013372,8.5618181,17.387745,-0.10155336,-0.036498122,-0.72667915,0.0,0.0,0.0
14:09:41.645,0.34097722,1.6513467,2.233999,2.0059462,0.72461754,2.6825356,0.0,0.0,0.0
14:09:41.747,7.2705917,-2.4284158,-8.9476614,0.91795069,0.2793099,-0.73034424,0.0,0.0,0.0
14:09:41.863,-2.4586253,3.280859,7.7350984,-3.6805837,-3.1629672,-0.1506502,0.0,0.0,0.0
14:09:41.975,-14.441881,12.531511,23.506193,-0.015423893,-1.0963944,0.24762221,0.0,0.0,0.0
14:09:42.109,-4.1934218,3.9388852,2.7963123,2.2399006,0.24632415,1.7760384,0.0,0.0,0.0
14:09:42.244,7.5553374,-0.061914288,-5.3081779,-0.59023118,-1.0939511,0.62329328,0.0,0.0,0.0
14:09:42.382,2.786442,3.9364924,15.873088,-3.9542434,-2.0511487,-1.0999068,0.0,0.0,0.0
14:09:42.498,0.26201409,2.6395824,13.039986,-0.32390177,-1.3370683,-2.2819726,0.0,0.0,0.0
14:09:42.617,-1.1162517,2.3955145,9.5105724,-0.44729289,-0.74637902,-1.6308094,0.0,0.0,0.0
14:09:42.752,-0.16630118,3.7689948,9.3981104,-0.14370182,0.41552883,-0.40293011,0.0,0.0,0.0
14:09:42.874,0.25483561,9.7462654,9.5751791,-0.73011518,-0.57961768,-2.1194873,0.0,0.0,0.0
14:09:42.988,1.9776679,3.3071799,9.749855,-1.2530005,-1.1819131,-0.82502556,0.0,0.0,0.0
14:09:43.104,3.4995031,-3.8497524,3.7199419,-0.63970977,0.54502845,-1.2733874,0.0,0.0,0.0
14:09:43.228,3.583252,-4.9719863,7.7997046,-0.015423893,-0.015729317,-1.7065545,0.0,0.0,0.0
14:09:43.355,4.0666022,-2.7035904,8.9650087,0.37551835,-0.46103698,2.9861269,0.0,0.0,0.0
14:09:43.475,8.1248293,-1.3181462,7.9935231,-0.51754034,0.16385978,2.5823567,0.0,0.0,0.0
14:09:43.608,5.8612189,7.8391862,9.7570333,0.55266404,-0.014507622,1.3637165,0.0,0.0,0.0
14:09:43.725,5.3682976,7.2266235,10.314561,-0.34833565,-0.42866206,-0.31313556,0.0,0.0,0.0
14:09:43.844,6.2033925,-0.70079792,7.8882389,0.02183779,-0.91985959,-0.74866968,0.0,0.0,0.0
14:09:43.966,8.5100737,1.6537396,9.9747801,-0.61038911,-0.58145022,-0.44568944,0.0,0.0,0.0
14:09:44.078,9.7495556,2.1323042,7.9959159,-0.3672719,1.2322316,-0.81708455,0.0,0.0,0.0
14:09:44.190,7.2969127,-2.8926234,6.7468624,-0.86083651,1.7538952,-1.5361282,0.0,0.0,0.0
14:09:44.309,0.85543412,-7.2403822,9.08465,-0.65437013,1.7380131,-3.0669115,0.0,0.0,0.0
14:09:44.415,-3.3176486,-2.8016963,7.7709908,0.45431766,-0.026113721,-1.9576128,0.0,0.0,0.0
14:09:44.545,-0.47736812,-1.7009978,9.4363956,-0.38009971,0.064902522,-1.2349041,0.0,0.0,0.0
14:09:44.668,-2.4059832,-1.8134605,9.4818592,0.0041232188,0.20478654,-1.20314,0.0,0.0,0.0
14:09:44.769,-3.1621151,-1.3923237,9.7259264,-0.1925696,-0.11285403,-1.0211076,0.0,0.0,0.0
14:09:44.890,-2.626123,-1.2535399,10.161421,0.038941514,-0.33031565,-0.17569494,0.0,0.0,0.0
14:09:45.016,-1.166501,-1.4258232,10.156635,-0.016645588,-0.25151637,0.47974417,0.0,0.0,0.0
14:09:45.128,-0.87457669,-1.3875381,9.7977114,0.25273806,-0.33825666,0.23418356,0.0,0.0,0.0
14:09:45.249,3.219543,1.498206,9.5895357,0.1085781,-0.01267508,0.26228255,0.0,0.0,0.0
14:09:45.360,2.379662,2.6778677,8.6419783,-0.029473381,0.22005773,0.3740676,0.0,0.0,0.0
14:09:45.490,2.812763,1.512563,9.4459667,-0.33550787,-0.012064233,0.34535778,0.0,0.0,0.0
14:09:45.620,1.9920249,0.68943202,9.4746799,-0.22250111,0.064291671,-0.053525493,0.0,0.0,0.0
14:09:45.795,1.2574283,-0.59551376,10.594522,-0.17118995,-0.014507622,0.19020256,0.0,0.0,0.0
14:09:45.910,1.3411771,-0.43280178,9.9197454,0.12995775,0.16447063,0.037490752,0.0,0.0,0.0
14:09:46.031,0.80279201,0.27068806,9.5297155,-0.017867282,0.038636088,0.0081700822,0.0,0.0,0.0
14:09:46.145,1.0588241,-0.14087744,9.709177,-0.051463883,0.0087045738,-0.042530239,0.0,0.0,0.0
14:09:46.281,0.89132643,-0.16002001,9.7211409,0.010842538,0.053907271,0.031993125,0.0,0.0,0.0
14:09:46.403,0.92482597,-0.095413804,9.8359966,0.00045813544,-0.016340164,0.077806666,0.0,0.0,0.0
14:09:46.522,0.82432741,0.08165507,9.5536432,0.098804541,-0.10124794,-0.097506493,0.0,0.0,0.0
14:09:46.634,1.2023934,-0.12412767,10.154242,-0.13942589,-0.033443887,0.0081700822,0.0,0.0,0.0
14:09:46.755,0.91286182,-0.46390849,9.8288183,0.0083991494,0.019699825,-0.053525493,0.0,0.0,0.0
14:09:46.878,0.83868432,-0.04755735,9.6302137,0.05971032,-0.011453386,0.010613471,0.0,0.0,0.0
14:09:47.007,1.1760724,0.014656039,9.8479605,-0.012369657,-0.043217443,-0.009544488,0.0,0.0,0.0
14:09:47.117,0.91525465,-0.23659034,9.7235336,-0.022143213,0.010537115,-0.026648212,0.0,0.0,0.0
14:09:47.229,1.0731809,-0.0020937198,9.8599253,-0.020310672,-0.018783553,-0.031534988,0.0,0.0,0.0
14:09:47.355,1.1425728,-0.20548365,9.8671036,0.052380152,0.024586603,-0.045584477,0.0,0.0,0.0
14:09:47.462,1.2358929,0.064905316,9.668499,0.026113721,0.010537115,0.0063375402,0.0,0.0,0.0
14:09:47.578,0.93439722,0.062512495,9.740284,-0.02275406,0.050242186,-0.0077119465,0.0,0.0,0.0
14:09:47.706,1.1162517,-0.11455639,9.996316,-0.030695075,0.016034741,0.0014507623,0.0,0.0,0.0
14:09:47.822,0.66640109,0.22283161,9.3382893,-0.032527618,-0.045049984,0.031382278,0.0,0.0,0.0
14:09:47.929,1.1042876,0.017048862,9.565608,-0.096055731,0.00076355907,0.046653461,0.0,0.0,0.0
14:09:48.060,-7.1988068,-3.4477584,5.5002022,1.7903169,0.07711947,0.25373068,0.0,0.0,0.0
14:09:48.195,-1.5732809,-7.3121667,4.0836511,1.3798276,-0.47325391,6.2860003,0.0,0.0,0.0
14:09:48.338,9.9936237,-4.8308096,18.572191,0.28511295,0.0050394898,3.9928794,0.0,0.0,0.0
14:09:48.452,12.831511,-0.35144582,14.147863,3.2575722,0.040468629,1.5286453,0.0,0.0,0.0
14:09:48.563,8.926425,4.5442691,4.811069,1.4494642,1.3238587,1.0398911,0.0,0.0,0.0
14:09:48.704,2.0159531,4.5586262,7.9528451,0.51234812,-0.14034216,-0.31557897,0.0,0.0,0.0
14:09:48.849,3.6837504,6.1354961,7.1919274,0.79700297,-1.1385429,-0.36933354,0.0,0.0,0.0
14:09:48.964,4.5786662,6.3053865,6.1965132,0.46958882,-1.0957836,-0.17325155,0.0,0.0,0.0
14:09:49.075,4.5116673,6.1689959,7.2038918,0.12934691,0.0032069481,-0.16103461,0.0,0.0,0.0
14:09:49.194,4.5116673,6.1689959,7.2038918,0.12934691,0.0032069481,-0.16103461,0.0,0.0,0.0
14:09:49.329,4.5116673,6.1689959,7.2038918,0.12934691,0.0032069481,-0.16103461,0.0,0.0,0.0
14:09:49.460,4.5116673,6.1689959,7.2038918,0.12934691,0.0032069481,-0.16103461,0.0,0.0,0.0
14:09:49.582,4.5116673,6.1689959,7.2038918,0.12934691,0.0032069481,-0.16103461,0.0,0.0,0.0
14:09:49.699,4.5116673,6.1689959,7.2038918,0.12934691,0.0032069481,-0.16103461,0.0,0.0,0.0
14:09:49.816,4.5116673,6.1689959,7.2038918,0.12934691,0.0032069481,-0.16103461,0.0,0.0,0.0
14:09:49.930,4.5116673,6.1689959,7.2038918,0.12934691,0.0032069481,-0.16103461,0.0,0.0,0.0
14:09:50.059,4.5116673,6.1689959,7.2038918,0.12934691,0.0032069481,-0.16103461,0.0,0.0,0.0
14:09:50.174,4.5116673,6.1689959,7.2038918,0.12934691,0.0032069481,-0.16103461,0.0,0.0,0.0
14:09:50.301,4.5116673,6.1689959,7.2038918,0.12934691,0.0032069481,-0.16103461,0.0,0.0,0.0
14:09:50.409,4.5116673,6.1689959,7.2038918,0.12934691,0.0032069481,-0.16103461,0.0,0.0,0.0
14:09:50.518,4.5116673,6.1689959,7.2038918,0.12934691,0.0032069481,-0.16103461,0.0,0.0,0.0
14:09:50.672,4.5116673,6.1689959,7.2038918,0.12934691,0.0032069481,-0.16103461,0.0,0.0,0.0
14:09:50.795,4.5116673,6.1689959,7.2038918,0.12934691,0.0032069481,-0.16103461,0.0,0.0,0.0
14:09:50.910,4.5116673,6.1689959,7.2038918,0.12934691,0.0032069481,-0.16103461,0.0,0.0,0.0
14:09:51.025,4.5116673,6.1689959,7.2038918,0.12934691,0.0032069481,-0.16103461,0.0,0.0,0.0
14:09:51.133,4.5116673,6.1689959,7.2038918,0.12934691,0.0032069481,-0.16103461,0.0,0.0,0.0
14:09:51.259,4.5116673,6.1689959,7.2038918,0.12934691,0.0032069481,-0.16103461,0.0,0.0,0.0
14:09:51.395,4.5116673,6.1689959,7.2038918,0.12934691,0.0032069481,-0.16103461,0.0,0.0,0.0
14:09:51.512,4.5116673,6.1689959,7.2038918,0.12934691,0.0032069481,-0.16103461,0.0,0.0,0.0
14:09:51.626,4.5116673,6.1689959,7.2038918,0.12934691,0.0032069481,-0.16103461,0.0,0.0,0.0
14:09:51.745,4.5116673,6.1689959,7.2038918,0.12934691,0.0032069481,-0.16103461,0.0,0.0,0.0
14:09:51.871,4.5116673,6.1689959,7.2038918,0.12934691,0.0032069481,-0.16103461,0.0,0.0,0.0
14:09:51.994,4.5116673,6.1689959,7.2038918,0.12934691,0.0032069481,-0.16103461,0.0,0.0,0.0
14:09:52.112,4.5116673,6.1689959,7.2038918,0.12934691,0.0032069481,-0.16103461,0.0,0.0,0.0
14:09:52.235,4.5116673,6.1689959,7.2038918,0.12934691,0.0032069481,-0.16103461,0.0,0.0,0.0
14:09:52.356,4.5116673,6.1689959,7.2038918,0.12934691,0.0032069481,-0.16103461,0.0,0.0,0.0
14:09:52.466,2.3030918,7.8894353,5.6533427,-0.46989426,0.70690298,0.34535778,0.0,0.0,0.0
14:09:52.576,2.0614166,6.7265234,6.1773705,-0.37765631,0.32145837,0.14744325,0.0,0.0,0.0
14:09:52.705,1.5182459,7.1069822,6.8880391,-0.19501299,0.22677705,0.13644801,0.0,0.0,0.0
14:09:52.822,2.2839491,6.7983084,5.9596238,-0.72522843,0.44301698,-0.16653223,0.0,0.0,0.0
14:09:52.945,2.4849463,6.9514489,9.4603233,0.081700824,-0.24662958,-0.21478917,0.0,0.0,0.0
14:09:53.057,1.0731809,5.9727845,6.3831534,0.52884102,-0.03771982,-0.3522298,0.0,0.0,0.0
14:09:53.183,1.0492527,5.3530436,6.428617,-0.05207473,0.044133715,-0.013209572,0.0,0.0,0.0
14:09:53.332,1.6043876,6.4848485,7.0555367,-0.16202724,0.071621843,0.18348324,0.0,0.0,0.0
14:09:53.466,2.082952,6.9490561,7.5939217,-0.071621843,0.13881505,-0.043751936,0.0,0.0,0.0
14:09:53.568,1.3770695,6.3508506,7.2996044,-0.0025961008,0.080173701,-0.11094514,0.0,0.0,0.0
14:09:53.690,0.91764748,6.3508506,7.2038918,-0.042912021,0.084449634,-0.069407523,0.0,0.0,0.0
14:09:53.808,0.70707911,6.331708,7.641778,-0.070400149,0.1253764,-0.073072605,0.0,0.0,0.0
14:09:53.917,1.0827522,6.372386,7.5412798,0.022448637,0.08322794,-0.017485503,0.0,0.0,0.0
14:09:54.035,0.72143602,6.3556361,7.2110701,-0.053907271,0.0025961008,-0.048638713,0.0,0.0,0.0
14:09:54.156,0.68315089,6.1761742,7.4527454,-0.014813046,0.064291671,0.01977618,0.0,0.0,0.0
14:09:54.269,0.15672988,6.341279,7.5077801,-0.24693501,0.25121093,-0.13721156,0.0,0.0,0.0
14:09:54.408,1.0564312,6.2503519,6.3640108,-1.6531818,0.7160657,0.53594214,0.0,0.0,0.0
14:09:54.577,1.6307086,3.9987056,11.00848,-0.27136889,0.019699825,-0.001603474,0.0,0.0,0.0
14:09:54.695,-0.12562318,4.3600221,7.8667035,0.68521792,-0.56312484,-0.010155336,0.0,0.0,0.0
14:09:54.826,1.0301101,5.3889356,9.0702934,0.14828317,-0.4341597,0.52983361,0.0,0.0,0.0
14:09:54.937,2.3126631,5.5348978,9.6900349,0.11102149,-0.18493401,0.31542626,0.0,0.0,0.0
14:09:55.106,4.7198424,6.8294148,10.422238,0.52273256,-1.318132,0.29893339,0.0,0.0,0.0
14:09:55.222,8.639286,7.0375905,9.0152588,1.4488534,-2.3156457,-0.13232478,0.0,0.0,0.0
14:09:55.361,6.5336022,7.1045895,5.0862436,1.5178791,-1.933866,-1.2581162,0.0,0.0,0.0
14:09:55.478,9.2327061,4.3552365,-0.63499528,0.99675,-2.0285473,-2.9178646,0.0,0.0,0.0
14:09:55.631,-2.487339,-4.8212385,-1.1255239,-0.56152135,0.37704548,-3.1573167,0.0,0.0,0.0
14:09:55.763,-10.441082,-1.8541385,-0.63020968,-2.2579205,1.5578132,2.0325942,0.0,0.0,0.0
14:09:55.887,10.161121,8.5761757,20.065313,-4.4949198,-2.9967403,2.2262328,0.0,0.0,0.0
14:09:56.010,22.441088,14.407484,26.377579,1.3230188,-3.0144548,2.0442004,0.0,0.0,0.0
14:09:56.134,17.858831,9.9185486,5.2968121,3.5868187,-6.6717501,-1.2630031,0.0,0.0,0.0
14:09:56.250,1.0492527,-5.3476596,3.7582271,0.20203774,-4.3339615,-4.1732321,0.0,0.0,0.0
14:09:56.365,-2.3150558,-10.958829,-1.9462621,-1.9976996,0.88038361,-3.1548734,0.0,0.0,0.0
14:09:56.487,-9.9122677,-4.7398825,-2.4128625,-2.248147,1.2077978,0.5848099,0.0,0.0,0.0
14:09:56.610,4.0115671,-7.9343009,12.812668,-10.188169,3.2609317,3.9721107,0.0,0.0,0.0
14:09:56.744,31.907093,11.552847,29.521748,0.42744038,-3.247875,2.3105297,0.0,0.0,0.0
14:09:56.856,26.303102,9.7558374,13.374981,3.2545178,-4.1103911,-3.0210979,0.0,0.0,0.0
14:09:57.022,2.5998018,-10.485049,1.0830513,0.66383827,-3.3566058,-5.0950007,0.0,0.0,0.0
14:09:57.137,-9.3906326,-17.022242,5.5624151,-2.0624495,3.2792571,-2.6594763,0.0,0.0,0.0
14:09:57.250,-9.1681004,-7.0178499,-3.8054852,-1.146713,1.7288505,2.7912664,0.0,0.0,0.0
14:09:57.374,34.661232,-15.043377,28.739296,-11.194845,1.1118947,7.0368075,0.0,0.0,0.0
14:09:57.495,39.312881,3.9484565,31.340294,0.16721943,-1.4152567,2.2671597,0.0,0.0,0.0
14:09:57.606,29.385059,0.70857459,17.775383,3.5874295,-2.6833756,-4.0681663,0.0,0.0,0.0
14:09:57.724,-1.2430713,-8.6401834,5.3255258,1.6950247,-3.8208497,-6.8359919,0.0,0.0,0.0
14:09:57.849,-2.9180472,-14.24896,3.0068808,-1.8724759,-0.3993414,-3.7907653,0.0,0.0,0.0
14:09:57.962,-8.3521471,-8.8244305,-1.9845473,-0.089947261,1.5364336,0.66299832,0.0,0.0,0.0
14:09:58.073,-12.721441,-12.148062,-1.6256239,-3.775876,1.7141901,7.7014093,0.0,0.0,0.0
14:09:58.195,42.067017,1.0507482,31.373793,-4.1516232,-0.85388809,4.7277288,0.0,0.0,0.0
14:09:58.365,25.209583,1.7446668,14.490037,4.4127607,-3.0645444,-5.0064278,0.0,0.0,0.0
14:09:58.485,0.96071827,-9.0637131,0.70019972,0.81288499,-4.5966258,-5.5647421,0.0,0.0,0.0
14:09:58.595,-1.4201403,-14.41885,4.8852468,-2.3739815,0.9976663,-3.77244,0.0,0.0,0.0
14:09:58.730,-5.0524449,-5.8669019,-0.95802635,0.1641652,1.6262281,1.3099619,0.0,0.0,0.0
14:09:58.845,-13.747963,-19.61606,-2.3602204,-6.9438825,2.0330524,10.026981,0.0,0.0,0.0
14:09:58.964,53.002216,-3.8449669,35.759838,-2.5896106,-3.839175,4.9494662,0.0,0.0,0.0
14:09:59.074,34.709087,2.8094728,12.697812,2.4433126,-1.5123814,-4.5446272,0.0,0.0,0.0
14:09:59.210,-1.8197416,-12.483057,3.9352961,1.602176,-4.7719388,-8.1822987,0.0,0.0,0.0
14:09:59.319,0.46061835,-10.698011,1.2696915,-1.7270943,-0.30466008,-3.7400651,0.0,0.0,0.0
14:09:59.440,-6.09093,-8.9033937,1.2314063,-0.064291671,1.9157697,-1.0327137,0.0,0.0,0.0
14:09:59.568,-10.582258,-13.483256,-4.9731827,-3.5987303,1.622563,8.3232517,0.0,0.0,0.0
14:09:59.718,46.232922,1.0148559,23.25016,-3.5718529,-2.5105059,6.3660212,0.0,0.0,0.0
14:09:59.859,28.566713,1.6680965,14.061722,1.5655252,-1.1037246,-5.412641,0.0,0.0,0.0
14:09:59.987,-0.32662028,-7.2068825,-2.8411777,0.9509365,-4.2899804,-5.4755583,0.0,0.0,0.0
14:10:00.100,-6.1005015,-16.73271,4.4042892,-1.9897586,1.4014363,-3.9294276,0.0,0.0,0.0
14:10:00.215,-19.354345,-11.245967,3.3849468,-0.67880404,2.0428259,4.3972602,0.0,0.0,0.0
14:10:00.336,32.952759,-9.5757771,15.729519,-6.8999014,0.2493784,8.400219,0.0,0.0,0.0
14:10:00.467,42.547977,7.4515491,17.00968,1.2307045,-0.32665056,-0.40476266,0.0,0.0,0.0
14:10:00.595,15.714863,-8.0706921,8.266305,4.4451356,-2.4842393,-9.2201281,0.0,0.0,0.0
14:10:00.720,0.22372891,-9.3939228,-6.8874407,-0.050853033,-0.64620006,-5.589787,0.0,0.0,0.0
14:10:00.838,-7.3902326,-7.9773717,-0.6230312,-1.1821421,1.9340951,-2.6582546,0.0,0.0,0.0
14:10:00.956,-12.965509,-6.40768,-2.7789643,-2.2628074,0.34894648,2.9280963,0.0,0.0,0.0
14:10:01.078,17.222342,-18.462721,3.8706896,-5.1100426,0.42163733,13.088014,0.0,0.0,0.0
14:10:01.207,39.477985,2.7783661,17.488243,0.24479704,-2.0480945,2.8999975,0.0,0.0,0.0
14:10:01.325,29.9713,-4.555635,11.845967,2.0364883,-0.4653129,-5.9660687,0.0,0.0,0.0
14:10:01.463,2.1020947,-17.082062,0.86051887,3.8158865,0.51815116,-9.9910946,0.0,0.0,0.0
14:10:01.595,-11.441281,-7.4437723,-3.4968112,-2.1479681,1.2908729,-1.9942635,0.0,0.0,0.0
14:10:01.712,-11.61835,-7.3576307,-2.9919257,-1.9005749,-0.80318779,3.5377219,0.0,0.0,0.0
14:10:01.821,7.0169525,-19.611275,-3.6595232,-4.3593116,-1.5716337,12.136924,0.0,0.0,0.0
14:10:01.937,33.890743,-4.8834519,21.94368,-2.4656086,-2.850137,4.5004935,0.0,0.0,0.0
14:10:02.093,30.186653,3.5129628,4.6244287,1.6431028,-0.59488887,-1.3773079,0.0,0.0,0.0
14:10:02.216,8.7230349,-16.354643,4.2439699,3.1372352,-1.8904959,-11.108945,0.0,0.0,0.0
14:10:02.351,-11.283355,-9.9059868,-7.1697941,-1.5126868,-0.40361732,-4.2624159,0.0,0.0,0.0
14:10:02.487,-13.214363,-11.492428,-1.8768703,-2.0288527,-1.2607124,4.8553958,0.0,0.0,0.0
14:10:02.606,34.237701,-23.688644,1.4826528,-5.0514016,-0.73538375,13.608456,0.0,0.0,0.0
14:10:02.726,29.655447,0.95024967,10.374382,1.442134,-1.4213653,1.9544058,0.0,0.0,0.0
14:10:02.839,29.741589,-2.9117661,10.941481,2.2570043,-0.8850413,-4.4859858,0.0,0.0,0.0
14:10:02.960,-0.76689965,-12.705589,0.77677006,4.1482639,0.091779798,-9.2323456,0.0,0.0,0.0
14:10:03.084,-9.7710915,-1.6435701,-5.0114679,-0.41186377,0.47722441,-2.7529359,0.0,0.0,0.0
14:10:03.219,-9.8859472,1.5029917,-4.5568318,-1.342795,0.94879848,2.0625257,0.0,0.0,0.0
14:10:03.339,4.5643091,-1.2511472,-7.3875408,-4.076489,-2.2362354,5.6360588,0.0,0.0,0.0
14:10:03.463,18.272791,-11.456535,11.030015,-3.3922639,-2.9319904,4.5298142,0.0,0.0,0.0
14:10:03.600,23.673391,-0.13609178,3.4016964,0.29855159,-0.51303536,1.961736,0.0,0.0,0.0
14:10:03.729,30.947571,-0.27248269,4.3348975,1.5154357,1.7337372,-1.592937,0.0,0.0,0.0
14:10:03.845,23.912674,-10.420444,-0.2952145,2.4365933,4.0929055,-9.0631409,0.0,0.0,0.0
14:10:03.967,-7.2801628,-10.181161,-4.5831528,1.6834186,1.0776873,-7.5445743,0.0,0.0,0.0
14:10:04.073,-9.8500547,-5.9434724,-1.1949158,-1.1931374,1.5767494,-0.28686914,0.0,0.0,0.0
14:10:04.212,-8.3856468,-7.6064839,-1.4150555,-0.54930443,-0.62359869,4.4613991,0.0,0.0,0.0
14:10:04.329,21.890738,-16.804495,-3.2910285,-2.5871673,-1.2173423,11.6555,0.0,0.0,0.0
14:10:04.462,31.253853,-0.50458646,11.144871,-0.094223186,-1.2759836,1.1528978,0.0,0.0,0.0
14:10:04.587,39.506699,-2.7681966,13.788939,2.2887683,0.91764528,-3.7932088,0.0,0.0,0.0
14:10:04.719,-5.2103715,-21.413071,-4.1021953,3.5104628,-0.24907297,-11.585405,0.0,0.0,0.0
14:10:04.837,-14.245669,-10.307981,-5.4493546,-2.4142973,0.43996274,-2.2208879,0.0,0.0,0.0
14:10:04.961,-11.065608,-12.097813,3.8754754,0.10002623,-1.9546349,4.7930894,0.0,0.0,0.0
14:10:05.080,27.4708,-21.776779,-1.4653047,-2.7527068,0.15897299,13.661599,0.0,0.0,0.0
14:10:05.195,36.211781,0.040977087,14.624035,0.68216366,-1.662039,1.6666968,0.0,0.0,0.0
14:10:05.306,28.492537,-2.2537398,3.7127635,2.453697,-0.95406705,-4.4963703,0.0,0.0,0.0
14:10:05.445,2.4442682,-16.759031,0.0014955142,2.4280415,0.18279605,-10.319119,0.0,0.0,0.0
14:10:05.564,-17.631514,-10.552049,-4.7099724,-2.1192582,-0.82090235,-3.3729458,0.0,0.0,0.0
14:10:05.684,-11.737991,-13.710575,7.8667035,0.15133741,-1.7005224,5.2414513,0.0,0.0,0.0
14:10:05.804,35.276188,-23.860928,-4.5065823,-2.9823854,1.8559067,14.489908,0.0,0.0,0.0
14:10:05.915,35.426937,-0.56679988,10.048958,2.8085992,-0.80135524,0.86885387,0.0,0.0,0.0
14:10:06.026,27.016165,-3.9478583,5.5504513,2.1122334,-0.43354884,-4.6936741,0.0,0.0,0.0
14:10:06.237,-11.577672,-7.9917283,-8.9763746,0.80738735,-0.36146885,-5.0748425,0.0,0.0,0.0
14:10:06.581,41.995235,-1.6914265,15.509379,2.4610271,-3.7139513,0.85297185,0.0,0.0,0.0
14:10:06.695,26.295925,-6.3478594,10.142278,0.74996769,0.6256603,-4.3161702,0.0,0.0,0.0
14:10:06.815,2.4011974,-16.617855,0.90837532,5.1976995,0.57251662,-9.5573921,0.0,0.0,0.0
14:10:06.956,-13.975281,-6.2545395,-9.6846504,0.18859909,-0.38040513,-3.0546944,0.0,0.0,0.0
14:10:07.076,-14.027923,-14.670096,5.7562342,-2.0899374,-1.1208284,6.2627878,0.0,0.0,0.0
14:10:07.196,38.913277,-16.098612,8.3452682,-3.3415635,1.2902621,10.712352,0.0,0.0,0.0
14:10:07.320,32.648869,1.794916,6.7085772,1.3114127,1.3837217,1.7968072,0.0,0.0,0.0
14:10:07.439,27.042484,-4.2038903,7.9815588,0.61741388,-2.6589417,-5.9123144,0.0,0.0,0.0
14:10:07.558,-0.83150589,-10.812866,-0.43878385,1.3419551,-1.7878736,-8.9880066,0.0,0.0,0.0
14:10:07.679,-13.731213,-5.1562338,-1.0058829,-1.3324106,-0.98827451,-2.2123361,0.0,0.0,0.0
14:10:07.809,-10.333405,-8.4056864,4.1315074,-0.8247965,-0.40483901,5.9121614,0.0,0.0,0.0
14:10:07.933,30.593433,-20.905792,5.2513485,-3.4008157,2.4179626,12.417914,0.0,0.0,0.0
14:10:08.045,19.718056,-0.16002001,8.5869436,0.54960984,0.1809635,2.1950796,0.0,0.0,0.0
14:10:08.161,20.665613,-1.9235303,5.0766726,1.4354147,-0.45187426,-1.2623922,0.0,0.0,0.0
14:10:08.282,18.995422,-14.717953,11.140085,3.0504949,0.77959383,-10.42113,0.0,0.0,0.0
14:10:08.399,-14.104493,-6.960422,-4.6956153,1.3694432,-0.8190698,-6.4419188,0.0,0.0,0.0
14:10:08.534,-13.580465,-5.9530435,-0.13010973,-0.46012071,-0.14645062,4.8413463,0.0,0.0,0.0
14:10:08.661,40.006798,-10.571192,-8.8686981,-2.3409958,0.85778224,11.059924,0.0,0.0,0.0
14:10:08.768,18.753748,-0.44955155,4.7656054,-0.13637166,-0.053601846,1.377766,0.0,0.0,0.0
14:10:08.878,14.472988,-0.2222334,3.5333018,1.1842802,0.49921492,-0.67414629,0.0,0.0,0.0
14:10:08.997,7.6989069,-1.3660027,3.1002009,-0.40453359,0.77531791,-0.24777491,0.0,0.0,0.0
14:10:09.124,10.828719,-0.39690945,3.2413774,0.34986275,0.04718795,0.10040802,0.0,0.0,0.0
14:10:09.263,8.5028954,-0.349053,3.6864424,-0.24021569,0.16996825,-0.41697961,0.0,0.0,0.0
14:10:09.395,9.2853479,-0.23898315,3.4926238,0.037108973,0.0074828789,-0.1427092,0.0,0.0,0.0
14:10:09.534,10.800005,-0.6122635,3.9352961,-0.32206923,1.1076188,-0.60328799,0.0,0.0,0.0
14:10:09.652,12.020345,0.63439709,4.5215373,0.13728791,0.67819315,-1.5752224,0.0,0.0,0.0
14:10:09.763,10.888539,2.8788648,6.8425756,0.039552361,0.3813214,-2.241046,0.0,0.0,0.0
14:10:09.873,5.3060842,4.1350965,5.0120664,1.5300961,-0.77203459,-4.2288194,0.0,0.0,0.0
14:10:10.006,-5.2079782,-1.3444673,1.0064811,0.35963634,-1.1758046,-2.1909564,0.0,0.0,0.0
14:10:10.119,-2.0470598,-3.6320057,6.1797638,-3.9450808,0.59878302,4.8877707,0.0,0.0,0.0
14:10:10.225,25.042086,4.130311,13.166805,-0.97811919,-2.0908539,3.4882433,0.0,0.0,0.0
14:10:10.377,8.4358959,1.3809577,5.5504513,1.1378558,-0.78241897,0.61901736,0.0,0.0,0.0
14:10:10.509,8.5435734,1.270888,3.1408789,0.33581328,-0.38651359,0.23723781,0.0,0.0,0.0
14:10:10.626,9.1728859,0.16061822,5.9668026,-0.20661908,0.31412819,-0.15981291,0.0,0.0,0.0
14:10:10.748,7.7515488,-0.37537405,5.2058849,0.24418619,0.29213771,0.062535487,0.0,0.0,0.0
14:10:10.857,8.4071827,-0.56201422,5.1006007,0.43049461,0.037414394,0.39422554,0.0,0.0,0.0
14:10:10.981,9.0604229,-0.0212363,4.1985064,0.53311694,-0.071316421,0.34780115,0.0,0.0,0.0
14:10:11.107,8.7326059,-0.17676978,4.7201419,0.28633466,-0.0193944,0.13278292,0.0,0.0,0.0
14:10:11.233,8.4526463,-0.43280178,4.3277187,0.33947837,0.096666582,0.11934429,0.0,0.0,0.0
14:10:11.344,8.8043909,-1.3444673,4.8278189,0.10308047,0.15775131,0.24762221,0.0,0.0,0.0
14:10:11.454,9.7974119,-0.5739783,4.5741796,-0.016034741,0.083838783,0.39300385,0.0,0.0,0.0
14:10:11.572,8.9647102,-0.06669993,4.5502515,-0.27992076,-0.074370652,0.028328042,0.0,0.0,0.0
14:10:11.726,8.7254276,-0.46869412,5.4523454,-0.12354386,0.0093154209,-0.11705361,0.0,0.0,0.0
14:10:11.872,8.5124664,-0.63140607,4.6292143,0.15500249,0.049631339,0.0032833039,0.0,0.0,0.0
14:10:12.718,12.936795,-1.0860424,4.2104707,0.035887275,0.26587126,0.37834352,0.0,0.0,0.0
14:10:12.833,16.901703,0.26590243,4.1410785,0.28816721,-1.4378581,-0.44202435,0.0,0.0,0.0
14:10:12.949,23.403002,-0.51415777,6.981359,0.73164231,-2.1855352,-2.9917772,0.0,0.0,0.0
14:10:13.095,3.5353954,-20.611475,1.7075781,1.9271468,0.76737684,-10.30568,0.0,0.0,0.0
14:10:13.222,-21.419352,-11.803495,-6.5333033,-1.4308333,-0.88870639,-2.4511774,0.0,0.0,0.0
14:10:13.345,-2.6811578,-20.331514,-2.891427,-2.8663244,-0.14400724,9.9139748,0.0,0.0,0.0
14:10:13.545,33.491142,0.285045,16.645969,0.039552361,-1.3663889,2.7680542,0.0,0.0,0.0
14:10:13.668,25.271797,1.0411769,6.7588267,0.014507622,-1.5258201,-3.9111023,0.0,0.0,0.0
14:10:13.778,9.0245304,-15.909578,6.4884377,1.730454,-1.2778161,-10.283079,0.0,0.0,0.0
14:10:13.895,-13.214363,-11.726925,-6.8204417,1.9399745,-2.2771623,-5.7107348,0.0,0.0,0.0
14:10:14.072,-19.667807,-15.835402,-1.5490535,-2.2652507,-1.6205014,5.6085706,0.0,0.0,0.0
14:10:14.356,31.507492,-1.5669997,14.231612,3.3131592,-1.2338351,1.7106777,0.0,0.0,0.0
14:10:14.483,3.7866418,-23.817858,-0.16839489,3.7572451,0.47294849,-11.047249,0.0,0.0,0.0
14:10:14.606,-14.39881,-10.676476,-3.9011981,-2.0557301,0.1253764,-3.3485119,0.0,0.0,0.0
14:10:14.723,-16.116858,-15.093626,-0.45074797,-4.6506858,1.2194039,6.7973557,0.0,0.0,0.0
14:10:14.927,36.240494,-3.9981074,13.284054,3.5923164,-2.7902739,2.8022618,0.0,0.0,0.0
14:10:15.799,27.923044,2.3404796,2.5618157,1.3076713,-0.25273806,1.3276765,0.0,0.0,0.0
14:10:15.925,13.343575,-1.306182,3.8395829,-0.68613416,1.8216993,-2.3784866,0.0,0.0,0.0
14:10:16.044,1.3268201,-9.7456675,7.0435724,-1.026987,3.1515901,-3.4352522,0.0,0.0,0.0
14:10:16.195,-5.9330039,-16.302002,8.2232342,-0.08322794,2.540132,4.0918369,0.0,0.0,0.0
14:10:16.313,24.254847,-7.6423764,8.8262253,1.2423106,-0.07070557,8.4930677,0.0,0.0,0.0
14:10:16.454,21.340389,4.9151568,4.5191445,2.8941181,-1.9998375,2.1547637,0.0,0.0,0.0
14:10:16.617,28.834709,-8.5588274,-2.5181468,-3.0312531,-4.1537614,-4.1683455,0.0,0.0,0.0
14:10:16.729,31.354351,-37.050167,12.965809,-10.369591,-4.5068312,-7.0919366,0.0,0.0,0.0
14:10:17.823,2.8414769,-6.663712,2.7101707,0.96254259,-6.8623343,-3.0094917,0.0,0.0,0.0
14:10:18.613,14.082957,-22.628624,-0.8886345,8.283165,-0.99988061,7.3135214,0.0,0.0,0.0
14:10:18.745,16.499708,-7.8984084,-7.4545398,5.3882837,-1.8923285,4.1113839,0.0,0.0,0.0
14:10:18.866,12.247663,-4.4647079,-9.8282204,2.8843443,-2.5178361,1.7723733,0.0,0.0,0.0
14:10:18.996,13.429717,-4.3833518,-8.3614197,-1.4534347,-3.0285044,3.1889281,0.0,0.0,0.0
14:10:19.113,25.398617,0.36400816,-8.1269226,-2.4301794,-3.2423773,2.0906248,0.0,0.0,0.0
14:10:19.228,17.46641,-5.7281184,-8.8639126,-5.6488099,-4.9894004,-4.7633104,0.0,0.0,0.0
14:10:19.345,-0.82432741,-17.457735,2.9374888,-6.6823635,-1.566136,-5.8506188,0.0,0.0,0.0
14:10:19.466,-14.403596,-11.06172,7.5987072,-5.7489891,1.2566655,3.3556895,0.0,0.0,0.0
14:10:19.618,15.456438,-3.3879378,4.2296133,1.8880525,4.0800781,12.163801,0.0,0.0,0.0
14:10:19.745,14.82234,3.5679977,-12.524931,3.8855231,-2.8116536,4.2512679,0.0,0.0,0.0
14:10:19.919,24.943979,9.1863451,-14.929718,-1.6220286,-2.2893791,0.06681142,0.0,0.0,0.0
14:10:20.046,-5.8420763,-6.11097,2.2579272,-4.5114126,-0.084144212,-4.6258698,0.0,0.0,0.0
14:10:20.167,-10.639686,-5.8381882,11.735898,-0.31473905,0.73622364,8.5730886,0.0,0.0,0.0
14:10:20.380,34.721054,6.3293152,11.740684,-0.76554435,0.23166382,2.1266646,0.0,0.0,0.0
14:10:20.595,-4.9351969,-1.2894323,0.92033941,-2.111928,-0.41339087,-3.8512392,0.0,0.0,0.0
14:10:20.712,6.6771717,7.9683986,12.889238,1.6192797,-2.9277146,-1.4634373,0.0,0.0,0.0
14:10:20.925,4.1216369,6.6475606,4.7895336,0.13056861,0.95124191,-0.28686914,0.0,0.0,0.0
14:10:21.061,1.8197416,7.5807614,1.829612,0.80494398,-0.065207943,-1.904469,0.0,0.0,0.0
14:10:21.196,0.37926239,6.0661044,5.7921262,-0.10033166,0.3049655,1.4021999,0.0,0.0,0.0
14:10:21.456,1.948954,5.4248281,7.3618178,-2.9390152,3.1100523,0.49501535,0.0,0.0,0.0
14:10:21.579,1.5134603,1.6561323,10.821839,-2.3330548,0.91398019,0.14011309,0.0,0.0,0.0
14:10:21.761,-4.0761733,2.362015,12.008679,0.18065807,-0.68773764,0.62390411,0.0,0.0,0.0
14:10:21.881,2.6428726,-1.0812567,9.0200443,0.1085781,-0.21120045,0.82487285,0.0,0.0,0.0
14:10:22.080,-0.95593262,-1.3253247,9.9006023,0.62901998,0.30007872,0.11690089,0.0,0.0,0.0
14:10:22.216,-1.5661024,0.057726845,9.3526468,-0.2249445,-0.34314343,0.26839101,0.0,0.0,0.0
14:10:22.405,-0.12083755,0.81385881,8.941081,0.050547611,0.14919944,0.0057266932,0.0,0.0,0.0
14:10:22.545,0.049052864,0.474078,9.8359966,0.00167983,0.00015271181,0.00022906772,0.0,0.0,0.0
14:10:22.667,0.037088752,0.44536412,9.8096752,0.00167983,0.0013744063,0.00083991501,0.0,0.0,0.0
14:10:22.788,0.037088752,0.44297129,9.8144608,0.0022906773,0.00015271181,0.00083991501,0.0,0.0,0.0
14:10:22.908,0.032303106,0.44297129,9.8024969,0.0010689828,0.0019852535,0.00022906772,0.0,0.0,0.0
14:10:23.043,0.044267219,0.42622152,9.7666044,0.0035123718,0.0019852535,0.00022906772,0.0,0.0,0.0
14:10:23.157,0.05383851,0.46211389,9.7833548,0.00167983,0.00015271181,0.00022906772,0.0,0.0,0.0
14:10:23.381,0.056231331,0.45972106,9.8072824,0.0022906773,0.00076355907,0.00083991501,0.0,0.0,0.0
14:10:23.537,0.039481573,0.44297129,9.7761765,-0.0025961008,-0.0022906773,0.00022906772,0.0,0.0,0.0
14:10:23.879,0.044267219,0.45254257,9.7881403,0.00167983,0.0013744063,0.00083991501,0.0,0.0,0.0
14:10:24.087,-0.25244278,-0.014057833,9.8407822,-0.00076355907,0.00076355907,-0.073683448,0.0,0.0,0.0
14:10:24.268,0.54197431,2.7424738,9.8192472,-0.017867282,-0.03771982,-0.30458373,0.0,0.0,0.0
14:10:24.395,-0.62811595,0.13190435,9.7881403,-0.00076355907,0.0038177953,0.24884391,0.0,0.0,0.0
14:10:24.530,0.27876383,-0.65294147,9.852746,0.0047340663,0.015423893,0.2140256,0.0,0.0,0.0
14:10:24.693,0.05383851,0.41904306,9.780962,0.00045813544,0.00015271181,0.00083991501,0.0,0.0,0.0
14:10:24.820,0.046660043,0.43818563,9.7905331,0.0010689828,0.00015271181,0.00083991501,0.0,0.0,0.0
14:10:24.945,0.058624156,0.45732823,9.7929258,0.00167983,0.0013744063,0.00083991501,0.0,0.0,0.0
14:10:25.075,0.041874398,0.45014977,9.7881403,0.0029015245,0.0019852535,0.00022906772,0.0,0.0,0.0
14:10:25.192,0.046660043,0.44536412,9.7761765,0.00167983,0.00076355907,0.00022906772,0.0,0.0,0.0
14:10:25.320,0.044267219,0.45254257,9.7833548,0.00167983,0.0013744063,0.00083991501,0.0,0.0,0.0
14:10:25.445,0.049052864,0.43818563,9.7953186,0.00167983,0.0013744063,0.00022906772,0.0,0.0,0.0
14:10:25.564,0.049052864,0.44297129,9.8001041,0.00045813544,0.00015271181,0.00083991501,0.0,0.0,0.0
14:10:25.687,0.056231331,0.44536412,9.8001041,0.00167983,0.0013744063,0.00022906772,0.0,0.0,0.0
14:10:25.901,0.037088752,0.44297129,9.8001041,0.00167983,0.0019852535,0.00083991501,0.0,0.0,0.0
14:10:26.024,0.056231331,0.45972106,9.7785692,0.00167983,0.00015271181,0.00083991501,0.0,0.0,0.0
14:10:26.154,0.046660043,0.46450669,9.7929258,0.0010689828,0.00015271181,0.00083991501,0.0,0.0,0.0
14:11:18.012,0.07537391,0.45972106,9.7642117,0.00030542363,-7.6355907e-05,-0.00015271181,0.0,0.0,0.0
14:11:19.073,0.061016977,0.44536412,9.7857475,0.00015271181,0.00053449138,-7.6355907e-05,0.0,0.0,0.0
14:11:19.306,0.065802626,0.45014977,9.7761765,-0.00038177954,-0.00068720314,-7.6355907e-05,0.0,0.0,0.0
14:11:20.316,0.068195447,0.44775695,9.7833548,-0.00038177954,-0.0,0.00045813544,0.0,0.0,0.0
14:11:20.631,0.084945202,0.4764708,9.7737827,-0.0022143214,-0.0025197449,0.00045813544,0.0,0.0,0.0
14:11:21.055,0.070588268,0.45014977,9.7857475,0.00022906772,0.00061084726,0.00045813544,0.0,0.0,0.0
14:11:21.292,0.056231331,0.46211389,9.7761765,0.00022906772,0.00061084726,0.00045813544,0.0,0.0,0.0
14:11:21.585,0.068195447,0.45972106,9.7953186,-0.00099262677,-0.0,-0.00015271181,0.0,0.0,0.0
14:11:22.378,0.063409798,0.42622152,9.8790674,0.00083991501,0.00061084726,0.00045813544,0.0,0.0,0.0
14:11:22.595,1.4727824,-1.1841481,10.125528,0.02893889,0.20768806,-0.93726873,0.0,0.0,0.0
14:11:23.441,-6.1005015,2.1514466,0.068494551,1.4021999,2.4086471,-0.081395395,0.0,0.0,0.0
14:11:23.678,0.11126626,1.0770693,-5.9709897,-1.359517,-0.9529981,1.8746139,0.0,0.0,0.0
14:11:23.995,4.2795634,5.8914285,10.070493,-4.1096277,-2.469121,2.974139,0.0,0.0,0.0
14:11:24.312,3.3487554,0.95503533,21.690041,-1.1377794,0.99751359,-0.71973079,0.0,0.0,0.0
14:11:24.546,1.5014962,-3.7253258,-2.6928227,4.5029368,2.4556823,-0.81807721,0.0,0.0,0.0
14:11:24.777,1.544567,-1.913959,-3.1259236,-3.0956211,-2.5583048,1.568503,0.0,0.0,0.0
14:11:25.024,5.0691948,0.93828559,19.15604,-2.884268,1.5124578,-1.4106754,0.0,0.0,0.0
14:11:25.336,2.044667,-0.9376874,9.8479605,0.13705885,0.12705623,0.0071774554,0.0,0.0,0.0
14:11:25.711,1.6426728,-0.57876396,9.5703936,0.021608721,0.054365408,0.023059484,0.0,0.0,0.0
14:11:26.466,1.6163517,-0.57876396,9.6541424,0.06192464,0.042759307,-0.0068720318,0.0,0.0,0.0
14:11:26.879,1.4727824,-0.31076783,9.6517496,-0.029702447,0.028709821,-0.02519745,0.0,0.0,0.0
14:11:27.267,1.4464613,-0.39451665,9.7354984,0.05092939,0.015271181,0.010842538,0.0,0.0,0.0
14:11:27.663,1.4703895,-0.35383865,9.7235336,0.044210069,-0.023212196,-0.0025961008,0.0,0.0,0.0
14:11:28.020,1.0803595,-0.32033914,10.790732,0.030771431,-0.20341213,0.15194826,0.0,0.0,0.0
14:11:28.295,4.5451665,-7.3983083,1.1356934,6.220716,2.8979359,-1.4931397,0.0,0.0,0.0
14:11:28.661,14.226527,-5.0868421,18.225233,-5.1023307,-2.1239922,4.7670522,0.0,0.0,0.0
14:11:29.021,9.2303133,-11.85853,7.0746794,7.460125,2.6560402,-2.3910851,0.0,0.0,0.0
14:11:29.233,-1.558924,-5.1346984,-15.281463,-0.27831727,-0.94444621,0.85014665,0.0,0.0,0.0
14:11:29.523,5.4352965,1.8523438,17.524136,-3.0394232,-0.12583454,0.59236914,0.0,0.0,0.0
14:11:29.937,2.5232315,-0.41844487,9.9771729,0.36131614,0.1551552,-0.15103199,0.0,0.0,0.0
14:11:30.172,2.2552354,-0.090628155,9.1779699,0.06192464,0.054976255,-0.02275406,0.0,0.0,0.0
14:11:30.387,2.1140587,0.30897322,9.6565351,-0.018707197,0.023212196,0.03771982,0.0,0.0,0.0
14:11:30.617,1.7958134,0.20368902,9.9077816,-0.013820419,0.0048867781,-0.045355409,0.0,0.0,0.0
14:11:30.834,2.0590239,0.00029910283,9.3023968,0.06192464,-0.068414897,-0.010537115,0.0,0.0,0.0
14:11:31.154,2.3389843,-1.8278174,14.652748,-0.08101362,-0.075745061,-0.44362783,0.0,0.0,0.0
14:11:31.482,2.1858435,-13.100405,-9.9717894,5.109508,0.066582352,0.17027368,0.0,0.0,0.0
14:11:31.695,5.4616175,1.0603195,17.758633,-5.278255,-5.0091004,4.8568463,0.0,0.0,0.0
14:11:31.972,1.4799608,-0.76301134,22.845774,2.9207661,2.1105537,-0.49005222,0.0,0.0,0.0
14:11:32.203,2.4681966,-3.9502511,-1.2284154,3.5213053,1.6071391,-0.48821968,0.0,0.0,0.0
14:11:32.489,2.5471597,5.2597232,10.86491,-4.9794741,-3.3072035,4.2312627,0.0,0.0,0.0
14:11:33.630,-1.5517455,-2.0647068,5.4020963,1.2610942,-3.2760501,-0.23349637,0.0,0.0,0.0
14:11:33.948,-0.75732839,-4.4814577,10.087243,0.23907034,0.86129463,3.0718746,0.0,0.0,0.0
14:11:34.255,1.6115661,-0.65054864,9.2042913,-0.099949881,0.45080528,1.3314943,0.0,0.0,0.0
14:11:34.612,-0.55633128,0.0050847479,9.5536432,0.54945713,-0.98231876,2.0566463,0.0,0.0,0.0
14:11:34.950,2.2528424,-1.3947165,10.039387,-0.032145835,0.17164809,1.324775,0.0,0.0,0.0
14:11:35.169,2.2528424,-0.6122635,8.3213396,0.096132085,0.4263714,0.86053109,0.0,0.0,0.0
14:11:35.458,1.0803595,1.1632109,10.216455,0.39369106,-0.19486028,0.41461259,0.0,0.0,0.0
14:11:35.764,-0.0011964113,-1.8541385,10.249955,0.044820916,-0.28160059,0.94421715,0.0,0.0,0.0
14:11:36.682,3.4037902,-1.0046864,10.307383,0.49020493,0.51127917,2.2008064,0.0,0.0,0.0
14:11:36.995,0.74057859,-0.60029936,9.4459667,-0.092619717,-0.075745061,0.16783029,0.0,0.0,0.0
14:11:37.219,1.6713866,-0.085842513,9.8790674,0.23235102,0.010384403,0.43110546,0.0,0.0,0.0
14:11:37.453,1.4344971,0.41425741,9.3550396,0.21769069,0.097735561,-0.017256435,0.0,0.0,0.0
14:11:37.673,1.166501,0.21086749,9.9915304,0.033825666,-0.0787993,-0.0062611843,0.0,0.0,0.0
14:11:37.895,1.2933207,0.69182485,8.9697952,-0.001603474,0.36895174,-0.019088976,0.0,0.0,0.0
14:11:38.217,1.4177474,0.8569296,9.6637135,0.099797174,-0.89977801,-0.10827268,0.0,0.0,0.0
14:11:38.528,1.3435699,-0.19830517,9.2712908,-0.17874917,0.19302773,0.32603973,0.0,0.0,0.0
14:11:38.839,1.3555341,-0.47826543,9.0344009,-0.13660072,-0.038483378,-0.069178455,0.0,0.0,0.0
14:11:39.150,0.85543412,-0.95443714,9.8312111,-0.11033428,0.1111742,-0.1021642,0.0,0.0,0.0
14:11:39.476,1.1904292,-0.76061851,11.589935,-0.56480467,-0.93039674,-0.24021569,0.0,0.0,0.0
14:11:39.696,9.0436735,-8.9033937,-4.2912283,6.4699416,5.5154924,-2.7258296,0.0,0.0,0.0
14:11:39.952,0.75972116,-5.6228342,-13.53231,-4.6856565,0.51311171,2.1714857,0.0,0.0,0.0
14:11:40.278,33.438499,-2.1125634,41.339901,3.0857713,2.6633704,-0.6965186,0.0,0.0,0.0
14:11:40.577,-1.1090733,-8.5253277,-12.824034,-1.2294065,-0.27854636,0.8061657,0.0,0.0,0.0
14:11:40.845,8.3593264,4.6351967,35.644981,-3.3454578,-0.42087376,-0.12659809,0.0,0.0,0.0
14:11:41.323,1.3076776,0.26590243,9.5440722,-0.015042114,0.25411245,0.0059557608,0.0,0.0,0.0
14:11:41.565,0.63768721,-0.2533401,10.161421,-0.054747187,0.14904673,0.047493376,0.0,0.0,0.0
14:11:41.927,0.48215377,-0.18873389,10.170992,-0.036421768,0.032374904,-0.097277425,0.0,0.0,0.0
14:11:42.413,0.59940207,-0.22941187,9.9412804,0.015500249,0.018325418,-0.039857782,0.0,0.0,0.0
14:11:42.669,0.60897338,-0.18155542,9.668499,-0.028480753,-0.03115321,0.10979979,0.0,0.0,0.0
14:11:42.897,0.38644084,-0.34666017,10.056136,-0.008322794,-0.02687728,0.049936764,0.0,0.0,0.0
14:11:43.114,-6.2416778,1.8930218,10.489237,-1.2886586,-1.1997803,-0.30313295,0.0,0.0,0.0
14:11:43.547,2.3246272,-7.6232338,-13.470096,-3.5751362,-1.6909015,2.0694742,0.0,0.0,0.0
14:11:43.895,28.834709,-12.236596,30.019455,5.290319,7.0755963,-2.4582784,0.0,0.0,0.0
14:11:44.110,-1.2263216,-8.8986082,-16.887047,0.42117918,1.2418525,-1.112582,0.0,0.0,0.0
14:11:44.368,9.9553385,-12.581162,3.7103705,-6.736958,-4.877768,2.6986468,0.0,0.0,0.0
14:11:44.672,1.7694924,-1.1051849,9.2521477,0.32588702,0.89000446,-0.66292197,0.0,0.0,0.0
14:11:44.995,1.1306087,0.072083779,9.8431749,0.34543413,0.51311171,0.75118941,0.0,0.0,0.0
14:11:45.332,2.5782664,0.3400799,9.3693962,0.12423106,0.07513421,-0.19440214,0.0,0.0,0.0
14:11:45.924,0.67357957,0.44057846,9.7977114,0.10468395,-0.10384403,-0.081395395,0.0,0.0,0.0
14:11:46.251,0.30747771,-0.18394823,7.0986075,-0.19646375,-0.10689827,-0.038025241,0.0,0.0,0.0
14:11:46.656,1.3172488,-8.276474,-12.005689,3.950731,3.681042,-2.0575626,0.0,0.0,0.0
14:11:46.930,5.0883374,-13.564612,-7.4138618,-6.0845733,-3.9083536,2.402386,0.0,0.0,0.0
14:11:47.131,28.45425,5.9703918,32.572598,1.9293611,1.9181367,-1.2500225,0.0,0.0,0.0
14:11:47.357,2.5471597,-7.5179496,-13.525131,4.645875,4.0835905,-0.79914093,0.0,0.0,0.0
14:11:47.674,0.41515473,-6.3574305,-9.258728,-3.5855207,-2.7433915,1.3785295,0.0,0.0,0.0
14:11:47.903,7.6749787,0.3376871,21.132513,1.6954066,2.0586317,0.84831411,0.0,0.0,0.0
14:11:48.262,0.8889336,0.30897322,5.0790653,-0.019318044,-0.48256934,0.20448112,0.0,0.0,0.0
14:11:48.576,0.40319061,0.48364928,8.9243307,-0.10239327,0.36223242,-0.083838783,0.0,0.0,0.0
14:11:48.997,1.8867407,1.3809577,9.8479605,-0.28992337,-0.19913621,-0.44179529,0.0,0.0,0.0
14:11:49.236,1.0779666,1.4670994,10.907981,-0.037032615,0.016492875,0.090863533,0.0,0.0,0.0
14:11:49.478,0.65682983,1.2684951,9.3287182,0.099797174,0.23151112,0.00045813544,0.0,0.0,0.0
14:11:49.817,-4.7605205,-2.0982063,-5.4924254,-0.61550498,-1.3317233,1.076771,0.0,0.0,0.0
14:11:51.022,-1.4177474,-6.3071814,-8.1963148,2.385664,1.4373236,-1.9824284,0.0,0.0,0.0
14:11:51.385,39.662231,-15.486049,11.666506,-7.7405801,-7.3560519,-0.22005773,0.0,0.0,0.0
14:11:51.757,4.4638104,-7.3959155,6.1941204,-1.9941872,0.73790348,-2.0722229,0.0,0.0,0.0
14:11:52.073,5.3826547,-0.75583285,9.1277208,-0.83479911,2.061075,-1.5304015,0.0,0.0,0.0
14:11:52.364,4.2915273,-1.2774682,9.7331057,0.21219307,-0.42942563,-0.27136889,0.0,0.0,0.0
14:11:52.608,-1.5062819,1.4431711,10.692627,-0.31435728,0.5906893,-0.49005222,0.0,0.0,0.0
14:11:53.079,4.0785661,-0.18634106,8.4361954,0.81945157,-0.0787993,0.64612371,0.0,0.0,0.0
14:11:53.366,6.3421764,0.67986071,6.4190459,0.54518116,2.1759143,-0.016034741,0.0,0.0,0.0
14:11:54.122,0.046660043,0.13190435,12.999309,3.3893623,1.6883818,0.65650809,0.0,0.0,0.0
14:11:54.345,-1.5302101,4.0082769,2.5881367,-1.0174425,0.92909867,0.82632363,0.0,0.0,0.0
14:11:54.725,3.0544381,6.7648087,9.7067842,0.51463884,-0.5082249,-0.68552333,0.0,0.0,0.0
14:11:54.938,-4.6025944,2.2854447,6.1199431,-1.0088906,2.0616858,1.6699036,0.0,0.0,0.0
14:11:55.330,1.9417756,6.3125653,5.7155561,-1.01561,0.43247986,2.8684623,0.0,0.0,0.0
14:11:56.180,-12.836297,-1.7847466,3.5835509,-0.45301959,0.79776651,-1.7826813,0.0,0.0,0.0
14:11:56.407,-6.1100726,-5.0676994,-1.3935201,0.29778802,-1.0800543,0.79028362,0.0,0.0,0.0
14:11:56.647,-6.971489,-6.2545395,-0.77617186,-0.16164546,0.1563769,0.031611346,0.0,0.0,0.0
14:11:56.953,-7.4763741,-5.4601221,-0.14446667,-0.2734305,0.12583454,-0.26892552,0.0,0.0,0.0
14:11:57.258,-8.0530443,-5.89083,-0.61106706,0.068643957,-0.036039989,0.14706148,0.0,0.0,0.0
14:11:58.181,-7.3304124,-6.1755762,-0.11814561,0.020997874,0.040315919,-0.054518119,0.0,0.0,0.0
14:12:04.082,-0.99900347,0.68943202,10.147063,-0.94230825,-0.10201149,0.52884102,0.0,0.0,0.0
14:12:04.334,-0.53718871,0.38315073,10.216455,-0.041308545,0.21440738,-0.1473669,0.0,0.0,0.0
14:12:04.626,-0.26201409,0.28025934,9.8072824,0.019165333,0.048867781,0.18371232,0.0,0.0,0.0
14:12:05.097,-0.45104706,0.67986071,9.7785692,0.016721943,0.043981001,0.00167983,0.0,0.0,0.0
14:12:06.533,-1.247857,0.3376871,10.159028,-0.076126836,0.03115321,0.0193944,0.0,0.0,0.0
14:12:06.960,-0.74775708,0.21086749,9.82164,0.011835165,0.0079410141,0.0059557608,0.0,0.0,0.0
14:12:07.180,-21.610777,-9.8724871,77.076706,-0.064520739,2.3145766,3.693717,0.0,0.0,0.0
14:12:07.450,2.7649066,-20.152054,-22.653749,-0.97651571,-2.5179887,-1.7307594,0.0,0.0,0.0
14:12:07.808,-20.361725,-13.289438,20.795124,7.5835161,-2.5442553,2.442091,0.0,0.0,0.0
14:12:08.040,4.5858445,-18.869501,-12.194721,-1.6148511,1.191763,-1.8010068,0.0,0.0,0.0
14:12:08.261,-24.635305,-10.556834,51.320362,-5.1890712,3.0066667,-1.8767519,0.0,0.0,0.0
14:12:08.650,3.8033917,-12.148062,-12.814463,-2.3980336,1.1624423,-1.6061465,0.0,0.0,0.0
14:12:08.996,-6.0406809,2.728117,13.389338,0.28679278,-0.98659468,-0.15103199,0.0,0.0,0.0
14:12:09.315,-1.2047862,-0.33230326,9.5799646,0.29045787,0.048256934,0.12446013,0.0,0.0,0.0
14:12:09.584,-1.1114662,-0.090628155,9.6852484,0.11018158,-0.036650836,0.096972004,0.0,0.0,0.0
14:12:09.846,-1.0947163,0.21804596,9.77139,-0.036421768,0.045813546,0.016951011,0.0,0.0,0.0
14:12:10.169,-1.4895321,0.3999005,9.637392,-0.064520739,-0.027488127,0.031000499,0.0,0.0,0.0
14:12:10.399,-0.52043891,-0.56679988,9.965209,-0.21540001,-0.2327328,0.20448112,0.0,0.0,0.0
14:12:10.633,-0.59940207,-0.98554385,10.36481,-0.32596338,-0.032985751,0.69132638,0.0,0.0,0.0
14:12:10.853,-0.73818576,-0.69840509,9.7187481,0.027717194,0.029931515,0.035887275,0.0,0.0,0.0
14:12:11.205,-0.66400826,-0.71276206,9.7235336,0.14744325,-0.098346412,-0.078952007,0.0,0.0,0.0
14:12:11.500,-1.2287145,-0.16002001,9.6613207,0.01977618,0.014660334,-0.067956761,0.0,0.0,0.0
14:12:11.827,-1.7814565,-0.39451665,9.9747801,0.0026724567,-0.071469128,0.0047340663,0.0,0.0,0.0
14:12:12.129,-1.5134603,-0.39212382,9.5416794,0.11384666,-0.38361207,0.092085227,0.0,0.0,0.0
14:12:12.362,-0.88654077,-0.49022955,9.6206427,-0.075515993,0.10323319,0.074370652,0.0,0.0,0.0
14:12:12.595,-1.3316058,-0.35862428,9.8192472,-0.026037365,0.042759307,-0.015423893,0.0,0.0,0.0
14:12:12.960,-1.4057833,-0.33230326,9.2425766,0.0264955,-0.0079410141,-0.019088976,0.0,0.0,0.0
14:12:13.176,-1.1306087,-0.200698,9.6493568,0.12362021,-0.045813546,0.14828317,0.0,0.0,0.0
14:12:13.609,-0.7716853,-0.16241284,9.7642117,0.037490752,-0.0085518621,-0.012980504,0.0,0.0,0.0
14:12:13.982,-0.7190432,-0.23419751,9.7378912,-0.005879405,-0.0219905,-0.044744562,0.0,0.0,0.0
14:12:14.233,-0.88414794,-0.13609178,9.5536432,0.010002624,-0.022601349,-0.058794048,0.0,0.0,0.0
14:12:14.477,-0.81714892,-0.46869412,10.020244,-0.09323056,-0.10506573,0.18859909,0.0,0.0,0.0
14:12:14.808,-0.68554372,-0.39212382,10.096814,-0.025426516,0.019547112,0.031611346,0.0,0.0,0.0
14:12:15.066,-0.79082787,-0.35623148,9.8479605,-0.12927055,0.031764057,0.07009472,0.0,0.0,0.0
14:12:15.295,-0.82193458,-0.33469605,9.6134644,0.0057266932,-0.0018325418,0.031000499,0.0,0.0,0.0
14:12:15.645,-0.97028959,-0.32512477,9.7618189,-0.067574978,-0.0073301671,0.044439137,0.0,0.0,0.0
14:12:17.107,-1.1832508,-0.17437695,9.8312111,-0.01137703,-0.0091627091,0.048104223,0.0,0.0,0.0
14:12:17.400,-1.2191432,-0.23659034,10.170992,-0.005879405,-0.0097735561,-0.00015271181,0.0,0.0,0.0
14:12:17.795,-1.585245,-0.26291138,10.180563,0.00083991501,-0.1551552,-0.041079476,0.0,0.0,0.0
14:12:18.171,-0.96071827,-0.27008986,9.7618189,-0.0290916,0.080020994,0.088420138,0.0,0.0,0.0
14:12:18.713,-1.0851451,-0.0044865427,9.3215399,0.099186324,-0.054365408,0.11712996,0.0,0.0,0.0
14:12:19.295,-18.966709,-2.5767708,40.607697,0.59099472,3.6602731,-0.025808297,0.0,0.0,0.0
14:12:19.512,0.60897338,-11.815459,-6.2126651,5.3758378,-0.98170793,3.4725902,0.0,0.0,0.0
14:12:19.745,-11.65185,-20.288445,4.8828535,-11.678865,0.88145262,-3.5664318,0.0,0.0,0.0
14:12:20.145,0.93439722,-10.056734,-6.2246289,5.0087185,-0.41904122,3.3540859,0.0,0.0,0.0
14:12:20.369,-7.1988068,-14.531313,-2.7765715,-7.9972124,1.1538905,-1.5163519,0.0,0.0,0.0
14:12:21.360,-9.5294161,-16.416857,-2.48704,8.2096348,-6.1263399,3.5684934,0.0,0.0,0.0
14:12:21.700,-27.329624,-27.27788,6.6798635,-10.203592,7.1844039,-3.7283063,0.0,0.0,0.0
14:12:22.000,-8.1822567,-17.053349,3.1337004,6.7881927,-6.4819293,3.1231856,0.0,0.0,0.0
14:12:22.245,2.382055,-0.31794631,-7.7368927,-1.9575363,-0.25227991,-1.8681999,0.0,0.0,0.0
14:12:22.470,-11.290534,-9.5518494,19.191933,-0.24655323,0.19974706,-1.4210598,0.0,0.0,0.0
14:12:22.850,-5.6769719,-2.7155547,8.0198441,0.82006246,-1.1081533,0.32237464,0.0,0.0,0.0
14:12:23.221,-2.4059832,-0.80129647,9.4411812,0.075974129,-0.2339545,0.067651331,0.0,0.0,0.0
14:12:23.446,-1.9513469,-0.8252247,9.5392866,0.01733279,0.11911522,0.092696071,0.0,0.0,0.0
14:12:24.720,-3.1980073,-0.0212363,9.2162552,0.20852798,-0.2583884,0.58381724,0.0,0.0,0.0
14:12:24.946,-0.93679005,-0.54047883,10.505987,-0.17813833,0.1007898,0.84587073,0.0,0.0,0.0
14:12:25.190,-0.57308102,0.67268229,10.137492,0.17493138,-0.018325418,-0.091779798,0.0,0.0,0.0
14:12:25.476,-1.032503,0.73489565,8.6539421,-0.20562646,0.082464382,-0.02519745,0.0,0.0,0.0
14:12:25.865,2.6763721,-2.4810579,12.147463,0.063146338,-0.33963108,-1.1791643,0.0,0.0,0.0
14:12:26.295,2.7266214,-0.56919271,12.721741,0.7314896,1.6175236,0.030389652,0.0,0.0,0.0
14:12:26.573,-0.75014991,1.9360926,9.0870428,0.20608459,-0.56869882,-1.7820705,0.0,0.0,0.0
14:12:26.820,-0.74775708,4.4605207,8.2423763,1.2384928,0.72751909,-0.38865158,0.0,0.0,0.0
14:12:27.028,0.82193458,4.601697,8.2423763,0.32283276,-0.13621894,0.021226943,0.0,0.0,0.0
14:12:27.376,-0.23808585,6.0780687,7.6130643,0.39979953,0.34879377,-0.071010992,0.0,0.0,0.0
14:12:27.675,-0.62811595,6.1091752,7.0363941,-0.13843326,-0.39888325,0.01267508,0.0,0.0,0.0
14:12:27.997,0.0035892338,5.410471,8.050951,-0.42308807,0.02443389,0.25945738,0.0,0.0,0.0
14:12:28.301,-0.0083748791,5.5277195,7.7590265,0.07291989,-0.26327518,-0.12720895,0.0,0.0,0.0
14:12:28.595,0.12083755,5.7622161,7.9456668,0.26350424,-0.073301673,-0.023975754,0.0,0.0,0.0
14:12:28.822,0.49172506,5.8483577,8.3404827,0.089412771,-0.036039989,-0.20478654,0.0,0.0,0.0
14:12:29.172,-2.0685952,6.9466634,8.4816589,0.11018158,0.32924667,-0.12232216,0.0,0.0,0.0
14:12:29.545,-0.59222358,6.9370918,6.2611194,0.1504975,0.24861483,0.048104223,0.0,0.0,0.0
14:12:29.795,-0.59222358,6.9370918,6.2611194,0.1504975,0.24861483,0.048104223,0.0,0.0,0.0
14:12:30.049,-0.59222358,6.9370918,6.2611194,0.1504975,0.24861483,0.048104223,0.0,0.0,0.0
14:12:30.262,-0.59222358,6.9370918,6.2611194,0.1504975,0.24861483,0.048104223,0.0,0.0,0.0
14:12:30.495,-0.59222358,6.9370918,6.2611194,0.1504975,0.24861483,0.048104223,0.0,0.0,0.0
14:12:30.795,-0.59222358,6.9370918,6.2611194,0.1504975,0.24861483,0.048104223,0.0,0.0,0.0
14:12:31.515,-0.59222358,6.9370918,6.2611194,0.1504975,0.24861483,0.048104223,0.0,0.0,0.0
14:12:32.105,-0.59222358,6.9370918,6.2611194,0.1504975,0.24861483,0.048104223,0.0,0.0,0.0
14:12:32.462,-0.59222358,6.9370918,6.2611194,0.1504975,0.24861483,0.048104223,0.0,0.0,0.0
14:12:32.711,-0.59222358,6.9370918,6.2611194,0.1504975,0.24861483,0.048104223,0.0,0.0,0.0
14:12:33.065,-0.59222358,6.9370918,6.2611194,0.1504975,0.24861483,0.048104223,0.0,0.0,0.0
14:12:33.316,-0.59222358,6.9370918,6.2611194,0.1504975,0.24861483,0.048104223,0.0,0.0,0.0
14:12:33.631,-0.59222358,6.9370918,6.2611194,0.1504975,0.24861483,0.048104223,0.0,0.0,0.0
14:12:33.924,-0.59222358,6.9370918,6.2611194,0.1504975,0.24861483,0.048104223,0.0,0.0,0.0
14:12:34.246,-0.59222358,6.9370918,6.2611194,0.1504975,0.24861483,0.048104223,0.0,0.0,0.0
14:12:34.545,-0.59222358,6.9370918,6.2611194,0.1504975,0.24861483,0.048104223,0.0,0.0,0.0
14:12:34.774,-0.59222358,6.9370918,6.2611194,0.1504975,0.24861483,0.048104223,0.0,0.0,0.0
14:12:35.045,-0.59222358,6.9370918,6.2611194,0.1504975,0.24861483,0.048104223,0.0,0.0,0.0
14:12:35.319,-0.59222358,6.9370918,6.2611194,0.1504975,0.24861483,0.048104223,0.0,0.0,0.0
14:19:07.676,-0.59222358,6.9370918,6.2611194,0.1504975,0.24861483,0.048104223,0.0,0.0,0.0
14:19:07.876,-0.59222358,6.9370918,6.2611194,0.1504975,0.24861483,0.048104223,0.0,0.0,0.0
14:19:08.138,-0.59222358,6.9370918,6.2611194,0.1504975,0.24861483,0.048104223,0.0,0.0,0.0
14:19:08.368,-0.59222358,6.9370918,6.2611194,0.1504975,0.24861483,0.048104223,0.0,0.0,0.0
14:19:08.585,-0.59222358,6.9370918,6.2611194,0.1504975,0.24861483,0.048104223,0.0,0.0,0.0
14:19:08.808,-0.59222358,6.9370918,6.2611194,0.1504975,0.24861483,0.048104223,0.0,0.0,0.0
14:19:09.100,-0.59222358,6.9370918,6.2611194,0.1504975,0.24861483,0.048104223,0.0,0.0,0.0
14:19:09.347,-0.59222358,6.9370918,6.2611194,0.1504975,0.24861483,0.048104223,0.0,0.0,0.0
14:19:09.561,-0.59222358,6.9370918,6.2611194,0.1504975,0.24861483,0.048104223,0.0,0.0,0.0
14:19:09.800,-0.59222358,6.9370918,6.2611194,0.1504975,0.24861483,0.048104223,0.0,0.0,0.0
14:19:10.120,-0.59222358,6.9370918,6.2611194,0.1504975,0.24861483,0.048104223,0.0,0.0,0.0
14:19:10.460,-0.59222358,6.9370918,6.2611194,0.1504975,0.24861483,0.048104223,0.0,0.0,0.0
14:19:10.668,-0.59222358,6.9370918,6.2611194,0.1504975,0.24861483,0.048104223,0.0,0.0,0.0
14:19:10.902,-0.59222358,6.9370918,6.2611194,0.1504975,0.24861483,0.048104223,0.0,0.0,0.0
14:19:11.118,-0.59222358,6.9370918,6.2611194,0.1504975,0.24861483,0.048104223,0.0,0.0,0.0
14:19:11.346,-0.59222358,6.9370918,6.2611194,0.1504975,0.24861483,0.048104223,0.0,0.0,0.0
14:19:11.672,-0.59222358,6.9370918,6.2611194,0.1504975,0.24861483,0.048104223,0.0,0.0,0.0
14:22:40.676,-0.59222358,6.9370918,6.2611194
14:22:40.811,-0.59222358,6.9370918,6.2611194
14:22:40.952,-0.59222358,6.9370918,6.2611194
14:22:41.065,-0.59222358,6.9370918,6.2611194
14:22:41.199,-0.59222358,6.9370918,6.2611194
14:22:41.327,-0.59222358,6.9370918,6.2611194
14:22:41.684,-0.59222358,6.9370918,6.2611194
14:22:41.853,-0.59222358,6.9370918,6.2611194
14:22:41.981,-0.59222358,6.9370918,6.2611194
14:22:42.118,-0.59222358,6.9370918,6.2611194
14:22:42.252,-0.59222358,6.9370918,6.2611194
14:22:42.376,-0.59222358,6.9370918,6.2611194
14:22:42.515,-0.59222358,6.9370918,6.2611194
14:22:42.647,-0.59222358,6.9370918,6.2611194
14:22:42.765,-0.59222358,6.9370918,6.2611194
14:22:42.899,-0.59222358,6.9370918,6.2611194
14:22:43.058,-0.59222358,6.9370918,6.2611194
14:22:43.166,-0.59222358,6.9370918,6.2611194
14:22:43.277,-0.59222358,6.9370918,6.2611194
14:22:43.448,-0.59222358,6.9370918,6.2611194
14:22:43.598,-0.59222358,6.9370918,6.2611194
14:22:43.721,-0.59222358,6.9370918,6.2611194
14:22:43.853,-0.59222358,6.9370918,6.2611194
14:22:43.972,-0.59222358,6.9370918,6.2611194
14:22:44.097,-0.59222358,6.9370918,6.2611194
14:22:44.216,-0.59222358,6.9370918,6.2611194
14:22:44.334,-0.59222358,6.9370918,6.2611194
14:22:44.473,-0.59222358,6.9370918,6.2611194
14:22:44.597,-0.59222358,6.9370918,6.2611194
14:22:44.741,-0.59222358,6.9370918,6.2611194
14:22:44.888,-0.59222358,6.9370918,6.2611194
14:22:45.039,-0.59222358,6.9370918,6.2611194
14:22:45.162,-0.59222358,6.9370918,6.2611194
14:22:45.319,-0.59222358,6.9370918,6.2611194
14:22:45.436,-0.59222358,6.9370918,6.2611194
14:22:45.583,-0.59222358,6.9370918,6.2611194
14:22:46.048,-0.59222358,6.9370918,6.2611194
14:22:46.174,-0.59222358,6.9370918,6.2611194
14:22:46.322,-0.59222358,6.9370918,6.2611194
14:22:46.516,-0.59222358,6.9370918,6.2611194
14:22:46.778,-0.59222358,6.9370918,6.2611194
14:22:46.900,-0.59222358,6.9370918,6.2611194
14:22:47.043,-0.59222358,6.9370918,6.2611194
14:22:47.183,-0.59222358,6.9370918,6.2611194
14:22:47.312,-0.59222358,6.9370918,6.2611194
14:22:47.453,-0.59222358,6.9370918,6.2611194
14:22:47.614,-0.59222358,6.9370918,6.2611194
14:22:47.735,-0.59222358,6.9370918,6.2611194
14:22:47.923,-0.59222358,6.9370918,6.2611194
14:22:48.048,-0.59222358,6.9370918,6.2611194
14:22:48.248,-0.59222358,6.9370918,6.2611194
14:22:48.392,-0.59222358,6.9370918,6.2611194
14:22:48.540,-0.59222358,6.9370918,6.2611194
14:22:48.689,-0.59222358,6.9370918,6.2611194
14:22:48.836,-0.59222358,6.9370918,6.2611194
14:22:48.955,-0.59222358,6.9370918,6.2611194
14:22:49.073,-0.59222358,6.9370918,6.2611194
14:22:49.215,-0.59222358,6.9370918,6.2611194
14:22:49.347,-0.59222358,6.9370918,6.2611194
14:22:49.467,-0.59222358,6.9370918,6.2611194
14:22:49.606,-0.59222358,6.9370918,6.2611194
14:22:49.775,-0.59222358,6.9370918,6.2611194
14:22:49.898,-0.59222358,6.9370918,6.2611194
14:22:50.014,-0.59222358,6.9370918,6.2611194
14:22:50.147,-0.59222358,6.9370918,6.2611194
14:22:50.274,-0.59222358,6.9370918,6.2611194
14:22:50.400,-0.59222358,6.9370918,6.2611194
14:22:50.541,-0.59222358,6.9370918,6.2611194
14:22:50.648,-0.59222358,6.9370918,6.2611194
14:22:50.768,-0.59222358,6.9370918,6.2611194
14:22:51.573,0.070588268,9.7486582,1.5711871
14:22:51.727,0.094516493,9.7319088,1.5664015
14:22:51.826,0.065802626,9.7343016,1.5544374
14:22:51.963,0.07537391,9.7366943,1.5568303
14:22:52.064,0.072981089,9.7558374,1.5496517
14:22:52.186,0.070588268,9.7414799,1.5544374
14:22:52.339,0.070588268,9.7319088,1.5520446
14:22:52.453,0.07537391,9.7343016,1.5568303
14:22:52.602,0.056231331,9.7390871,1.5448661
14:22:53.551,-2.0255244,7.5305119,-2.7598219
14:22:53.666,-1.5948163,6.7600231,-4.513761
14:22:53.782,-1.8891335,6.5015984,-3.8198423
14:22:53.932,-1.43689,6.7743802,-3.958626
14:22:54.048,0.044267219,8.4469633,-3.6355948
14:22:54.189,1.0851451,9.8635139,-2.4176481
14:22:54.342,3.0759735,9.2820578,-2.5348964
14:22:54.471,2.1643081,10.435399,0.10438689
14:22:55.620,3.3487554,9.0355978,5.2226343
14:22:55.742,4.0163527,7.6453676,2.4373889
14:22:55.873,4.8753762,8.3919277,1.1500504
14:22:55.998,1.8675981,9.4902334,2.7652056
14:22:56.128,4.5738807,7.7865438,1.2433704
14:22:56.278,5.0093741,4.9366922,-1.5299109
14:22:56.428,6.7441707,9.4375916,5.6078792
14:22:56.573,2.8342984,11.287244,8.0988073
14:22:56.696,-0.42233321,9.2102737,6.5267229
14:22:56.851,1.3866407,7.9707913,4.662714
14:22:56.974,2.8295128,7.662117,3.7989051
14:22:57.134,2.2767708,8.6527462,3.8443687
14:22:57.253,3.298506,9.095418,3.9640098
14:22:57.376,2.0901306,8.8657074,3.5404801
14:22:57.509,1.9848464,8.5666046,3.4926238
14:22:57.637,4.9256253,9.3897352,1.6597216
14:22:57.851,9.9122677,3.5129628,11.087442
14:22:57.998,-0.23808585,5.3506503,14.138291
14:22:58.125,-3.7100716,7.5616188,12.224033
14:22:58.260,-9.5653086,2.8884361,7.7877402
14:22:58.375,-7.7850485,4.7763729,15.279668
14:22:58.514,1.2454642,4.9725847,20.125134
14:22:58.652,4.3178487,6.8772712,14.076078
14:22:58.765,4.7222357,6.1642103,5.5695939
14:22:58.888,6.7896342,5.8794641,0.60448682
14:22:59.018,8.9168539,6.0206409,3.9496529
14:22:59.153,1.8939191,8.4493561,14.025829
14:22:59.282,-3.9565322,5.747859,14.482858
14:22:59.413,-4.662415,4.3504505,11.343474
14:22:59.533,-6.6221366,5.1257253,9.5608215
14:22:59.666,-8.7397842,3.8264225,8.0844507
14:22:59.798,-4.0594234,6.8318076,14.138291
14:22:59.922,4.6289153,6.7935224,11.235798
14:23:00.048,3.7292142,6.4537416,6.0529442
14:23:00.219,1.6642082,8.7053881,3.3323047
14:23:00.354,1.8029919,9.0140619,1.2266207
14:23:00.498,0.022731815,9.9879408,2.2986052
14:23:00.617,-1.1976078,9.4710913,2.1981068
14:23:00.739,-1.0971092,9.2509518,2.5546372
14:23:00.858,-1.4009976,9.4447699,2.5833511
14:23:00.981,-1.3507484,9.3801641,2.3919253
14:23:01.119,-0.99182498,9.5141621,2.3321047
14:23:01.250,-1.0133604,9.4974117,2.4445674
14:23:01.384,-1.2454642,9.6218386,2.3344977
14:23:01.501,-1.3555341,9.5093765,2.5713871
14:23:01.624,-1.4057833,9.5476618,2.559423
14:23:01.769,-1.2191432,9.0403833,2.3488545
14:23:01.891,-1.3148561,9.1600246,2.2459631
14:23:02.017,-1.3363914,9.8467646,2.7652056
14:23:02.183,-1.1306087,9.5691967,2.6599214
14:23:02.359,-0.87696952,9.3179502,2.5809584
14:23:02.508,-0.84825563,9.2318087,2.4278176
14:23:02.668,-1.4392828,9.5333042,2.5139594
14:23:02.812,-1.1497513,9.3562355,2.6144578
14:23:02.936,-1.2981063,9.5213404,2.6503501
14:23:03.068,-1.274178,9.4710913,2.6503501
14:23:03.191,-1.2646067,9.5261259,2.5881367
14:23:03.312,-1.2622139,9.5117693,2.3727827
14:23:03.437,-1.4536397,9.7893362,2.7125635
14:23:03.574,-1.3986049,9.2964153,2.5618157
14:23:03.693,-1.5038891,9.9592266,2.6910281
14:23:03.810,-0.7932207,9.6457672,2.5426731
14:23:03.937,-0.25722843,7.3606215,2.2148564
14:23:04.048,-9.4432745,-1.7847466,3.2892339
14:23:04.203,-4.3154554,-10.540085,0.98255283
14:23:04.325,-1.5302101,-11.131112,-0.14925231
14:23:04.497,3.7196429,-8.9919281,0.66430742
14:23:04.616,3.1764719,-9.1857471,0.63080788
14:23:04.733,2.9970105,-9.5398846,1.1428719
14:23:04.865,2.3964119,-9.3221378,1.9540387
14:23:04.983,1.8987048,-9.2288179,1.5999011
14:23:05.106,-3.080759,-10.461122,1.5544374
14:23:05.227,-6.09093,-11.133505,1.4874383
14:23:05.329,-9.1369934,-4.8810592,4.002295
14:23:05.434,-8.342576,-0.0092721879,5.4284172
14:23:05.568,-2.2767708,5.6425748,3.9329031
14:23:05.680,0.48454657,7.6764741,4.7536411
14:23:05.785,4.6169515,8.0856466,3.4950166
14:23:05.908,2.2025933,8.7939224,4.1362929
14:23:06.021,2.2432711,8.5378904,3.368197
14:23:06.148,2.085345,8.7317085,4.0956149
14:23:06.277,1.1904292,8.8657074,3.8276188
14:23:06.397,1.0013963,9.0523472,4.0788655
14:23:06.517,1.1282159,8.798708,3.9041893
14:23:06.656,1.0636097,8.9853477,4.1793637
14:23:06.789,0.78125662,9.176774,3.920939
14:23:06.921,0.92961162,8.9805622,4.3109689
14:23:07.071,0.92243314,8.8752785,3.8347974
14:23:07.212,0.83389866,8.9805622,3.772584
14:23:07.329,0.85543412,8.9590273,3.8994036
14:23:07.466,0.62093747,9.3107719,3.9927237
14:23:07.602,0.55872411,8.9685984,3.6266217
14:23:07.719,0.35772699,8.880064,3.8443687
14:23:07.889,0.86500537,9.1576309,4.3037906
14:23:08.024,0.83868432,8.9997053,3.85394
14:23:08.148,0.94636136,8.9446697,3.5524442
14:23:08.279,0.70947194,9.3729858,4.2343988
14:23:08.403,0.68075806,9.0595255,3.5309088
14:23:08.520,0.51565325,9.0978107,3.6864424
14:23:08.636,0.80518484,9.136096,3.4854453
14:23:08.763,0.56590253,9.064311,3.597908
14:23:08.898,0.64486569,9.1815596,3.3227334
14:23:09.012,0.61615181,9.0451689,3.1552358
14:23:09.201,1.8125632,8.9566345,3.3562329
14:23:09.332,-1.2215359,6.9394846,2.3632114
14:23:09.438,-7.0672016,2.9195428,4.7201419
14:23:09.567,-9.8356972,-4.9384871,2.9997022
14:23:09.691,-8.5124664,-8.235796,2.2674985
14:23:09.840,-4.581059,-8.838788,1.6501503
14:23:09.972,-3.3200414,-9.1761761,1.4132608
14:23:10.115,-3.4779677,-8.8316097,1.5113666
14:23:10.238,-3.2961133,-9.0708914,1.128515
14:23:10.373,-3.8991046,-8.9943209,1.4802599
14:23:10.499,-3.6095729,-8.8818588,1.3175479
14:23:10.674,-3.7052858,-8.6521473,1.532902
14:23:10.779,-3.8440695,-8.604291,1.37019
14:23:10.964,-4.1647077,-8.6545401,1.6573287
14:23:11.077,-4.1407795,-8.8100739,1.5592231
14:23:11.197,-4.0881376,-8.7957172,1.4228321
14:23:11.333,-4.365705,-8.7430744,1.7626129
14:23:11.456,-4.4374895,-8.7741814,1.6621144
14:23:11.597,-4.2412782,-8.4631147,1.7362919
14:23:11.759,-4.3465624,-8.5492563,1.6980067
14:23:11.898,-6.6197438,-8.6425762,1.4970096
14:23:12.018,-9.2614202,-5.5965133,3.5069807
14:23:12.214,-4.6121655,5.154439,4.918746
14:23:12.313,0.094516493,7.1261249,4.1147575
14:23:12.493,5.1290154,7.3534431,3.8108692
14:23:12.628,2.812763,9.2054882,4.3109689
14:23:12.797,2.9850461,8.624032,3.6122649
14:23:12.928,2.7649066,8.6766739,3.516552
14:23:13.048,2.7672994,8.3129654,3.2676985
14:23:13.163,2.7146573,8.839386,3.6792638
14:23:13.298,3.2434711,8.3464642,3.8467615
14:23:13.441,2.1667008,8.7388878,0.57338011
14:23:13.583,2.6524439,9.3777714,1.6118652
14:23:13.729,2.1260228,10.251151,3.8491542
14:23:13.848,0.99900347,9.0020981,3.2653055
14:23:13.964,0.89132643,8.3967142,4.042973
14:23:14.071,0.90807617,8.798708,3.2174492
14:23:14.171,0.98703933,8.7029953,3.4639099
14:23:14.308,1.0636097,9.2198448,3.8778682
14:23:14.420,0.97268242,8.8872423,4.1721854
14:23:14.548,1.4177474,9.0379906,4.7344985
14:23:14.684,0.94157571,9.35145,5.7323055
14:23:14.835,0.43190449,9.9161558,7.6441712
14:23:14.960,0.039481573,8.9781694,3.2437701
14:23:15.066,-0.31226337,10.047761,2.8489544
14:23:15.199,0.92721879,9.3705921,0.94426763
14:23:15.310,0.65443701,8.5211401,0.41306102
14:23:15.448,1.5780666,9.1624174,1.1476575
14:23:15.567,1.0420742,9.585947,1.0710872
14:23:15.686,0.48933223,9.3849497,0.32213375
14:23:15.800,0.5802595,10.028619,0.83659059
14:23:15.922,0.66640109,9.9927263,0.5805586
14:23:16.048,1.5326029,10.026226,0.4657031
14:23:16.170,0.07537391,9.9903336,1.0423734
14:23:16.372,1.4943178,9.6122675,0.23359931
14:23:16.798,1.5397813,9.6960163,1.5664015
14:23:16.950,1.0348958,9.8611212,1.9109679
14:23:17.073,0.97746807,9.4902334,1.5281163
14:23:17.248,0.72143602,9.729516,1.8008982
14:23:17.385,0.94157571,9.8539429,1.7482561
14:23:17.504,1.1282159,9.7008018,1.8224336
14:23:17.628,0.61615181,8.8130646,0.93948197
14:23:17.755,1.2861422,2.3356941,-2.9368906
14:23:17.868,0.94875419,12.718151,4.3947177
14:23:17.985,-1.855634,15.568004,9.2784691
14:23:18.155,-6.9308109,12.399906,7.9337025
14:23:18.296,-4.6241298,10.423434,4.9929237
14:23:18.427,-4.2364926,7.9516487,2.6144578
14:23:18.552,-3.446861,5.8938212,-0.065503523
14:23:18.653,-2.7122645,5.6976099,-0.71395844
14:23:18.786,-1.3411771,4.9438705,-2.8387849
14:23:18.898,-0.67836523,5.0539403,-1.8361923
14:23:19.039,0.51565325,7.3079796,-0.61585271
14:23:19.163,-0.81714892,10.507183,1.8846469
14:23:19.294,-0.71186471,11.749059,3.408875
14:23:19.425,-1.1928221,11.270494,5.1029935
14:23:19.548,-1.570888,10.990534,6.9239316
14:23:19.678,-2.9467611,9.1887379,7.5771718
14:23:19.829,-1.3866407,7.595118,5.0431728
14:23:19.969,-0.49172506,8.511569,5.8040905
14:23:20.103,-1.1976078,7.8176508,5.1484571
14:23:20.221,-1.6187445,8.5929251,4.9737811
14:23:20.341,-1.4871392,8.8130646,5.1053863
14:23:20.498,-0.78604221,7.9253278,4.2296133
14:23:20.632,-0.07537391,8.8609209,4.8589253
14:23:20.756,-0.0083748791,8.7412806,4.842176
14:23:20.861,0.07537391,8.4996052,4.8014979
14:23:20.979,-0.24526432,8.6336031,5.1364927
14:23:21.130,-0.32183465,8.8298149,5.1364927
14:23:21.273,-0.43908295,8.5761757,5.1484571
14:23:21.398,-0.089730851,8.2579298,4.8684969
14:23:21.820,-0.79561353,8.1646099,4.2655053
14:23:21.937,-0.6233303,8.2363949,3.9711883
14:23:22.073,-1.3435699,9.3993063,5.1843495
14:23:22.221,-1.4129617,8.2842512,4.0166521
14:23:22.329,-0.79561353,9.0834541,5.1053863
14:23:22.435,-1.3986049,8.7125664,4.4162531
14:23:22.567,-1.3507484,8.7029953,4.4210391
14:23:22.673,-0.85304129,8.6982098,4.2678981
14:23:22.779,-1.1617154,8.6599245,4.3707895
14:23:22.947,-1.2598212,8.9159565,4.4138603
14:23:23.083,-1.6043876,8.6790667,4.4784665
14:23:23.230,-1.4344971,8.5163546,4.4760737
14:23:23.349,-1.1306087,8.4278202,4.0645084
14:23:23.485,-1.1952149,8.5977106,4.0573301
14:23:23.633,-1.3531412,8.6742811,4.1650071
14:23:23.773,-1.3674982,8.7029953,4.4425745
14:23:23.898,-1.9992033,9.1408815,4.7464628
14:23:24.017,-2.0805593,9.3825569,4.3396831
14:23:24.135,-0.2955136,8.9614201,4.3683968
14:23:24.257,-4.5978088,2.8980074,4.6028934
14:23:24.367,-8.6967134,-5.5893345,3.784548
14:23:24.498,-6.1579289,-10.11177,2.9662027
14:23:24.614,-3.2482567,-10.372587,1.3869399
14:23:24.748,1.5230316,-8.4439716,2.3344977
14:23:24.885,-0.38165522,-10.013663,1.6740786
14:23:24.998,-0.49651068,-10.181161,1.9205393
14:23:25.125,-0.83629149,-9.965807,2.1454647
14:23:25.248,-1.6163517,-9.6954184,1.7961125
14:23:25.371,-10.094122,-10.9349,1.9109679
14:23:25.524,-9.263813,-2.5983062,5.0168519
14:23:25.631,-4.253242,3.7498522,5.4116673
14:23:25.755,6.0861444,6.8078794,5.6461639
14:23:25.881,6.2464633,5.5707903,4.2870407
14:23:26.015,9.3786688,3.4794633,2.5235305
14:23:26.123,7.6893353,3.8958144,3.4136605
14:23:26.249,7.0360951,2.9267211,2.4278176
14:23:26.366,9.9074821,4.7285166,3.7366917
14:23:26.498,9.4289179,4.7285166,3.0523443
14:23:26.636,-1.3555341,7.5831542,4.3947177
14:23:26.748,-3.7531424,5.4726844,5.1317072
14:23:26.872,-8.4047899,1.7111673,4.3301115
14:23:27.025,-9.5868435,-4.6274199,4.2343988
14:23:27.134,-7.749156,-8.0659056,3.4016964
14:23:27.248,-5.9234324,-8.6425762,3.2126634
14:23:27.377,-4.3992043,-8.3626156,3.2078779
14:23:27.513,-4.662415,-7.836195,2.8800611
14:23:27.652,-4.8251266,-8.1783686,2.6958139
14:23:27.767,-5.0548377,-8.0324068,3.0284162
14:23:27.898,-7.0791659,-8.06112,3.7366917
14:23:28.019,-9.0317087,-9.0708914,3.9640098
14:23:28.148,-7.3543406,2.8190441,3.3346975
14:23:28.263,1.7958134,5.7502518,4.1865425
14:23:28.401,4.9543395,6.3436718,4.4162531
14:23:28.518,8.9814596,4.8649077,3.5069807
14:23:28.625,7.9477606,5.08744,3.5715868
14:23:28.767,7.4763741,5.3721857,3.9999022
14:23:28.886,7.308877,5.6593246,3.920939
14:23:29.012,7.3375907,5.2573304,3.8802609
14:23:29.149,7.7826557,4.2523451,3.6625142
14:23:29.548,-11.218749,-3.7827535,3.7582271
14:23:29.738,-7.1844501,-6.1971116,3.2509487
14:23:29.859,-6.9906316,-6.3358951,3.3107693
14:23:30.049,-7.0169525,-6.2832532,2.9925239
14:23:30.171,-6.6053867,-5.7520466,3.1337004
14:23:30.330,-6.9834528,-5.7927246,2.935096
14:23:30.468,-7.0983086,-5.6587262,3.1983066
14:23:30.660,-7.3902326,-5.5438709,3.1624143
14:23:30.775,-7.3328052,-5.59412,3.2485559
14:23:30.929,-7.2945199,-5.6371908,3.2581272
14:23:31.069,-9.2685986,-5.2328038,3.4304104
14:23:31.331,-3.7124643,3.388536,4.3516469
14:23:31.460,2.3054845,6.9059854,4.4976091
14:23:31.571,7.1150579,6.003891,3.9281175
14:23:31.698,6.7441707,6.0302124,3.6672997
14:23:31.848,6.3589263,6.372386,3.8156548
14:23:31.972,10.845469,5.1616178,3.9065821
14:23:32.147,0.82193458,6.2527447,4.1865425
14:23:32.260,-8.0291166,3.1205399,4.0597229
14:23:32.373,-11.144571,-0.45433721,3.3634114
14:23:32.522,-10.165907,-1.8996021,3.2389846
14:23:32.648,-9.3332043,-2.2848465,2.8776684
14:23:32.782,-9.4504528,-3.0003004,1.8320048
14:23:32.907,-7.3232336,-1.5287145,2.6934209
14:23:33.069,-9.7926264,-1.8493528,3.3059835
14:23:33.214,-8.6656075,-1.576571,3.6266217
14:23:33.354,-10.840683,-0.36819559,4.2248273
14:23:33.493,6.643672,6.5039911,2.1358933
14:23:33.602,-4.4374895,3.8958144,10.23799
14:23:33.734,10.792827,7.8583288,4.4832525
14:23:33.872,15.946966,10.303793,23.039593
14:23:33.997,10.57508,-9.965807,13.607085
14:23:34.113,8.2468634,-10.760224,11.812469
14:23:34.227,1.0564312,-8.9464645,5.0048876
14:23:34.352,-4.2317066,-4.5340996,4.4665027
14:23:34.469,0.9798609,0.58893347,1.5831513
14:23:34.591,16.39921,6.1331034,5.6318073
14:23:34.729,11.115857,4.6232324,2.9398818
14:23:34.848,19.127028,6.4058852,8.2423763
14:23:34.974,18.531216,2.6347969,3.6720855
14:23:35.092,1.9034904,-2.8399813,6.4764738
14:23:35.231,-3.6047873,-4.5843492,2.7843482
14:23:35.367,6.2847486,-4.4024944,1.7961125
14:23:35.544,20.294725,4.0704904,1.1404791
14:23:36.107,-5.3180485,-1.2894323,-12.161222
14:23:36.237,-8.1559362,4.6280179,-6.0140605
14:23:36.374,-4.1886358,8.3153582,1.3486546
14:23:36.509,4.3704906,-5.773582,-0.30478579
14:23:36.648,13.6355,-8.5492563,-8.4595251
14:23:36.771,19.337597,-6.5009999,-7.3803625
14:23:36.925,8.8259268,-0.59312093,0.92751789
14:23:37.049,8.2468634,-2.6676981,9.9436731
14:23:37.171,15.150157,-1.5669997,14.150256
14:23:37.309,-1.599602,-8.7646103,8.6419783
14:23:37.436,-8.373683,-3.8521454,5.0599227
14:23:37.558,0.7190432,-9.3293161,0.030209387
14:23:37.663,4.8011985,-4.5843492,-8.8854475
14:23:37.787,9.5342016,-6.1827545,-9.1749792
14:23:37.906,13.197614,-1.9594226,-6.7821565
14:23:38.037,5.0476594,2.8692935,4.2248273
14:23:38.161,9.366704,-0.0212363,9.4866447
14:23:38.267,12.630514,-0.98793668,16.090836
14:23:38.399,1.9106688,-2.6461627,7.1823564
14:23:38.522,-8.0554371,-7.8505521,6.32094
14:23:38.648,0.30747771,-6.8168526,-4.6501517
14:23:38.762,9.7471628,-5.6108699,-8.7729855
14:23:38.884,12.695121,-1.9689939,-7.0310102
14:23:39.010,13.941781,0.62004018,-7.1506515
14:23:39.143,7.9764743,4.3528433,3.4950166
14:23:39.270,7.789834,3.5105698,5.7969122
14:23:39.398,18.114864,5.1448679,-2.513361
14:23:39.518,18.488144,4.4126639,-0.97956175
14:23:39.652,26.499315,-1.1602199,0.027816564
14:23:39.773,9.3978109,-9.1929255,5.8423758
14:23:39.897,0.22372891,-6.4770718,9.412467
14:23:40.013,-1.6283158,-18.778572,16.612471
14:23:40.153,16.181463,-9.5877409,24.188147
14:23:40.275,23.477179,-2.5121646,-17.57618
14:23:40.377,6.0000029,6.1881385,-23.048565
14:23:40.498,7.4620175,-1.442573,-3.0038898
14:23:40.618,7.4333034,-8.829216,-0.022432713
14:23:40.744,12.331411,-9.013464,-6.5141606
14:23:40.876,22.670797,-11.52832,-5.0306106
14:23:40.997,13.558929,-6.8455663,0.81266236
14:23:41.143,7.9716887,-1.7321045,5.2345986
14:23:41.269,9.4121675,-0.52133626,2.2292135
14:23:41.414,10.177871,0.57218373,1.1907284
14:23:41.538,7.3543406,0.17736799,1.7147565
14:23:41.664,6.2991056,2.0102701,1.1620145
14:23:41.770,9.2183495,2.3668008,4.2535415
14:23:41.910,16.411175,4.6926241,4.7057848
14:23:42.032,10.476974,1.7877376,4.8924251
14:23:42.148,9.3403835,0.28025934,4.6818566
14:23:42.284,8.8331051,3.4794633,10.403095
14:23:42.421,6.2727847,9.504591,-2.9847472
14:23:42.548,2.8989046,5.7454662,-7.8206415
14:23:42.672,2.9252257,5.6976099,-0.68285179
14:23:42.783,-1.5900307,8.7484589,-1.0154541
14:23:42.916,1.2909278,8.0808611,-1.0657034
14:23:43.048,-0.76929247,9.4615202,-5.5354962
14:23:43.213,-1.678565,13.062718,-9.7277212
14:23:43.339,-3.0831521,5.2094741,-1.4772689
14:23:43.455,-5.9090757,7.5041909,-1.4126626
14:23:43.578,-7.2275209,10.634003,-2.5851457
14:23:43.715,-1.9848464,6.8916283,-6.9711895
14:23:43.914,-6.0263238,6.2527447,-3.7600217
14:23:44.034,-5.4329038,7.8296146,-5.0736814
14:23:44.156,-2.4586253,8.8346004,-8.9069834
14:23:44.287,-2.9635108,6.2910299,-6.2078791
14:23:44.416,-5.1529436,5.7741799,-2.4343979
14:23:44.533,-7.0384879,7.5089765,-2.0539391
14:23:44.672,-3.7866418,7.9707913,-7.1291161
14:23:44.832,-4.3226342,6.2479591,-5.2435718
14:23:44.950,-6.2153568,7.114161,-3.4633117
14:23:45.079,-5.4137611,6.9227352,-2.4487548
14:23:45.203,-5.7391853,7.3151579,-4.0902314
14:23:45.334,-4.6456652,7.7051878,-4.688437
14:23:45.460,-4.3393841,8.6694956,-3.4250264
14:23:45.579,-3.5641093,9.0427761,-0.32392836
14:23:45.704,-3.8584266,9.5380898,0.81984085
14:23:45.840,-3.3320055,9.3370934,-0.64695942
14:23:45.973,-3.6885362,8.183753,-3.2407792
14:23:46.114,-7.8496547,8.8776712,-2.7598219
14:23:46.236,-6.1794643,7.3390861,-2.5612175
14:23:46.374,-5.1385865,5.7215381,-2.0802603
14:23:46.509,-5.8372908,7.0160551,-2.958426
14:23:46.626,-6.7441707,9.2700939,-5.5139608
14:23:46.753,-4.9351969,8.3656073,-4.3055854
14:23:46.897,-3.8943188,4.9295139,-3.6643088
14:23:46.999,-5.2271209,5.415257,-6.5931239
14:23:47.125,-5.8779688,7.0040908,-7.0621171
14:23:47.254,-4.6169515,6.5733829,-5.8322062
14:23:47.387,-3.7459638,6.0708899,-4.5975094
14:23:47.504,-4.1240296,7.815258,-5.4637113
14:23:47.625,-3.7866418,8.6048889,-4.5305104
14:23:47.749,-0.69032931,9.238987,-4.0495534
14:23:47.886,-0.42951167,8.0784683,-4.1787658
14:23:48.008,-1.1736795,8.4541416,-5.1215377
14:23:48.122,-1.3651053,8.470891,-5.3129635
14:23:48.232,0.51804608,8.4517488,-5.4182477
14:23:48.365,1.8221345,7.6908312,-4.8894339
14:23:48.497,2.3030918,8.9255276,-3.8461633
14:23:48.616,3.1190443,9.6816597,-1.3336995
14:23:48.768,5.0644093,8.7843513,-1.8314066
14:23:48.900,8.9551392,7.5735826,-1.044168
14:23:49.002,7.830512,7.114161,-1.4653047
14:23:49.122,6.3086767,6.9897342,-1.5107684
14:23:49.248,6.346962,9.4399843,-0.78813595
14:23:49.369,5.9688959,8.7628155,-1.084846
14:23:49.500,5.0763731,7.8559361,-0.37657046
14:23:49.679,5.0045886,7.7817583,0.63080788
14:23:49.798,5.2271209,8.5067835,-0.13968103
14:23:49.928,5.4185467,8.5019979,-0.024825536
14:23:50.048,5.2223353,8.4086781,-0.34307095
14:23:50.178,5.4113684,8.2100735,-0.16839489
14:23:50.281,5.4520464,8.368,-0.55363935
14:23:50.412,5.389833,8.183753,-0.40528435
14:23:50.539,5.2295141,8.0114689,-0.26171497
14:23:50.667,5.3802619,7.9564342,0.23359931
14:23:50.784,5.6697931,8.2914295,0.030209387
14:23:50.907,5.1840501,8.0521469,0.19292133
14:23:51.048,4.4829531,6.7887368,0.35084763
14:23:51.164,4.2101712,3.8790646,1.2385849
14:23:51.264,8.3473616,2.1107686,1.0543375
14:23:51.399,11.297712,0.20847467,-2.2070799
14:23:51.520,12.037094,-0.63140607,-3.7241294
14:23:51.648,10.546366,-3.1797621,-3.8030925
14:23:51.769,8.8833542,-4.5125642,-5.1358948
14:23:51.898,9.0676012,-2.3709881,-3.0086753
14:23:52.010,6.9499536,-1.9570298,-3.6667016
14:23:52.145,9.7830553,-4.9384871,-0.9484551
14:23:52.280,14.214563,-3.8808591,0.31016964
14:23:52.413,6.6532435,-2.7897322,-0.80010009
14:23:52.552,6.5216379,-5.0126643,-0.77377903
14:23:52.675,9.1561356,-8.6353979,-0.49860442
14:23:52.786,8.3114691,-4.9456654,-1.7979071
14:23:52.941,6.9906316,-0.45673001,-5.5259247
14:23:53.069,12.630514,-1.9115661,-1.1709876
14:23:53.194,15.059229,-1.4712868,-3.3005998
14:23:53.320,8.9479599,-2.3350959,-0.72352976
14:23:53.454,6.0861444,-4.0794635,-2.6210382
14:23:53.572,8.189436,-5.6515479,-0.12771691
14:23:53.698,20.727827,7.5376906,7.5484581
14:23:53.816,11.587244,1.6082759,8.1346998
14:23:53.943,2.9682965,1.3833506,2.5043881
14:23:54.070,-0.65204418,4.8673005,6.5458655
14:23:54.188,-0.28354949,5.2453666,8.0940218
14:23:54.312,0.61854464,5.2836514,7.0363941
14:23:54.448,-0.020338992,6.8868427,7.5269227
14:23:54.584,-0.53001022,8.8585281,6.1582284
14:23:54.684,-1.1306087,7.0375905,4.9977093
14:23:54.807,-1.032503,7.4515491,4.2822552
14:23:54.946,-1.7359928,7.7362947,5.2728839
14:23:55.079,-1.8987048,7.2361946,6.8162546
14:23:55.215,0.57786667,6.1546388,10.503594
14:23:55.317,3.4779677,5.8794641,8.8549395
14:23:55.434,2.5304101,5.6952171,7.3211398
14:23:55.573,1.6689938,7.47787,7.7159557
14:23:55.699,0.74775708,6.8294148,5.0718865
14:23:55.809,0.061016977,6.7743802,6.4046888
14:23:55.947,2.784049,7.9205422,8.6252279
14:23:56.069,2.3126631,6.3580289,7.579565
14:23:56.174,2.9970105,7.4228349,5.9117675
14:23:56.285,7.3615189,11.012069,5.1795635
14:23:56.403,2.8797619,13.883456,7.0340014
14:23:56.540,-2.7625136,4.2044883,5.957231
14:23:56.659,-4.9926243,1.4599209,6.0433726
14:23:56.798,-4.9878387,4.3983073,4.3277187
14:23:56.930,-6.8159552,3.7977087,6.792326
14:23:57.062,-7.1485577,4.2403808,2.8657043
14:23:57.196,-7.2227349,2.6970103,0.75523466
14:23:57.309,-11.173285,3.4459636,3.7414773
14:23:57.435,-11.426925,3.8001015,1.3390833
14:23:57.564,-7.1820574,2.9027929,1.3725829
14:23:57.692,-7.411768,3.3023944,3.0499516
14:23:57.814,-8.3641119,3.6517465,5.9500527
14:23:57.952,-8.6799641,4.3959141,3.3466616
14:23:58.087,-7.0935225,2.6443682,0.30777681
14:23:58.204,-7.9716887,1.91695,0.73609209
14:23:58.342,-12.664014,0.65832531,5.2920265
14:23:58.470,-9.1058865,2.5414767,1.6310078
14:23:58.593,-7.3304124,2.8046873,1.6597216
14:23:58.700,-8.3090763,3.467499,3.4040892
14:23:58.859,-9.5844507,3.7187455,4.8278189
14:23:58.982,-8.4047899,3.8599219,2.8776684
14:23:59.110,-6.8757758,3.0200412,1.6788642
14:23:59.227,-8.7397842,2.6371896,1.3414762
14:23:59.348,-11.357533,3.6589248,3.9855452
14:23:59.485,-7.5984082,3.9293139,1.384547
14:23:59.605,-7.830512,2.6946175,2.2316062
14:23:59.711,-8.1750784,3.3071799,3.2150564
14:23:59.834,-9.5988083,3.6373894,4.8804607
14:23:59.986,-8.9288177,4.9725847,1.9875383
14:24:00.111,-6.4307108,3.4651062,1.4635102
14:24:00.222,-8.1631145,2.658725,2.7819555
14:24:00.373,-16.193428,-0.30837503,2.4684956
14:24:00.514,-0.97268242,-3.3352957,13.453944
14:24:00.643,-0.084945202,-3.9119658,10.142278
14:24:00.763,3.9948175,-4.1488552,11.826825
14:24:00.900,-1.3268201,-2.5863421,9.668499
14:24:01.021,-12.209377,-6.9484577,10.860125
14:24:01.159,3.32722,-11.413465,8.1610203
14:24:01.294,9.9003038,-2.9165516,12.312568
14:24:01.407,-1.7647067,-7.0728846,7.8954172
14:24:01.548,-13.097115,-5.180162,9.9771729
14:24:01.698,-4.8011985,-9.9562359,8.2088776
14:24:01.817,15.573687,-4.124927,12.934702
14:24:01.923,3.9373896,-5.0365925,9.3765745
14:24:02.048,-6.8566332,-4.2469611,10.321739
14:24:02.173,-9.6012011,-7.2140613,10.197312
14:24:02.298,0.97028959,-6.2688961,8.3907318
14:24:02.419,9.8404827,0.036191441,11.106586
14:24:02.548,4.8801618,-2.1364915,11.166406
14:24:02.698,-4.1623149,-4.0722852,9.0056868
14:24:02.819,-4.9256253,-3.708576,9.862318
14:24:02.942,-0.89611208,0.34247273,9.4005032
14:24:03.063,3.3152559,2.6730821,8.3141613
14:24:03.177,-0.22612174,0.76839519,8.9339027
14:24:03.326,-2.5208387,-0.82283187,9.8168535
14:24:03.449,-3.3726835,-1.2822539,8.8262253
14:24:03.564,-1.7288144,-1.6459628,8.8692961
14:24:03.708,-2.4394827,-2.2250259,9.7953186
14:24:03.831,-1.6115661,-1.8517456,9.309576
14:24:03.955,-2.4418755,-1.7536399,9.2401838
14:24:04.135,-2.7936203,-1.3444673,9.2306128
14:24:04.304,-2.6476583,-1.9666011,10.221241
14:24:04.459,-4.7126641,-0.79890364,7.534101
14:24:04.700,-8.9862452,-1.9785652,3.4136605
14:24:04.837,-8.2923269,-2.4308088,4.0645084
14:24:04.955,-8.3138618,-2.7131617,4.0716867
14:24:05.077,-8.199007,-2.5049863,4.0381875
14:24:05.238,-8.4933243,-2.7394829,3.9592242
14:24:05.395,-8.6464643,-2.7370901,3.9352961
14:24:05.514,-8.342576,-2.574378,3.9951165
14:24:05.649,-8.6967134,-3.1175487,3.8084764
14:24:05.763,-8.6225367,-2.5241287,3.301198
14:24:05.873,-8.8378906,-2.8806593,4.0046878
14:24:06.018,-9.4313107,-2.0096719,3.6433716
14:24:06.151,-9.304491,-1.4162519,5.1149573
14:24:06.261,-5.8420763,-0.71994048,7.565208
14:24:07.113,-2.784049,-0.19830517,7.9576306
14:24:07.227,-3.7196429,-0.42562333,6.581758
14:24:07.359,-5.6219368,-0.069092751,11.580364
14:24:07.495,-3.0664022,-0.83240318,7.9719877
14:24:07.619,-5.916254,-0.82283187,7.3283186
14:24:07.769,-6.8350978,-3.5291142,6.6918278
14:24:07.971,-5.7152567,-3.0816565,6.3807607
14:24:08.115,-7.9980097,-2.3111675,6.213263
14:24:08.237,-5.5525451,-1.8661026,7.6250286
14:24:08.374,-5.2462635,-1.7943178,7.0005016
14:24:08.518,-6.7226353,-3.4812579,7.6130643
14:24:08.648,-6.6341009,-10.255339,11.238191
14:24:08.784,2.3772693,2.8381867,3.6768711
14:24:08.921,-16.786848,-9.7337036,6.1917276
14:24:09.072,-12.474981,-9.1139622,4.2296133
14:24:09.188,16.186249,2.0341983,7.345068
14:24:09.319,-8.9814596,-4.1895332,3.636193
14:24:09.437,-14.365311,-6.9699931,6.096015
14:24:09.548,-13.001402,-10.702797,6.4477596
14:24:09.682,15.757934,3.9556348,2.8465617
14:24:09.804,-4.8873401,-1.5047864,3.4328032
14:24:09.926,-13.539787,-8.2573318,5.7251272
14:24:10.077,-12.563516,-9.0780697,3.8180475
14:24:10.211,13.11865,2.0748763,5.4882379
14:24:10.348,-5.2055855,-1.2415758,3.6505501
14:24:10.466,-9.8404827,-8.1352978,5.9261246
14:24:10.598,-5.0452666,-10.039985,7.5987072
14:24:10.708,-11.101501,-9.0780697,5.7203417
14:24:10.838,-6.7417779,-1.9594226,5.1723852
14:24:10.948,5.10748,5.8387861,3.3323047
14:24:11.083,-6.3708901,6.9562345,2.7245276
14:24:11.209,-7.0791659,7.9564342,5.026423
14:24:11.328,-6.8662047,8.133503,2.7293134
14:24:11.498,-3.8464625,6.0972114,2.0736799
14:24:11.633,-5.9473605,6.5925255,5.6940207
14:24:11.747,-8.4813595,7.0639114,4.2774696
14:24:11.875,-5.2797632,3.065505,5.2944193
14:24:11.999,-4.1216369,3.9508493,5.1771708
14:24:12.123,-8.3473616,6.4345994,10.319346
14:24:12.252,-3.5617166,6.0182481,5.9141603
14:24:12.369,-3.6885362,7.006484,2.0641086
14:24:12.498,-5.2917271,5.5899329,7.022037
14:24:12.635,-7.4859457,6.0780687,6.945467
14:24:12.748,-3.6119659,4.1829529,4.406682
14:24:12.879,-5.10748,4.5897331,5.3327045
14:24:13.023,-5.2223353,4.2523451,8.0772715
14:24:13.149,-5.8181481,8.1789665,9.3502541
14:24:13.286,1.180858,5.6736817,1.1979069
14:24:13.413,-5.4424753,-0.14566308,2.7269206
14:24:13.529,-2.7146573,-6.8288169,7.160821
14:24:13.664,23.170898,-16.725531,-6.7462645
14:24:13.770,15.432509,-14.387743,-12.297613
14:24:13.876,20.902502,-6.5751777,-18.44956
14:24:14.011,3.473182,-3.4070804,-10.940883
14:24:14.131,9.1489573,-5.8860445,-7.1578298
14:24:14.264,5.5645089,-5.3045888,-6.8467627
14:24:14.386,5.1003013,-5.7951174,-5.5259247
14:24:14.541,4.9256253,-6.6828547,-5.47089
14:24:14.653,8.4693956,-3.9287157,-5.9973106
14:24:14.781,-0.53240305,-3.5817564,-11.505589
14:24:14.916,7.8424764,-5.5055857,-4.6310091
14:24:15.019,6.6580291,-5.2064829,-7.3013992
14:24:15.159,10.503295,-4.6298127,-10.672886
14:24:15.271,5.2199426,-6.4411793,-7.2032933
14:24:15.399,6.8446693,-6.3023958,-5.8513489
14:24:15.506,2.8007989,-5.1107702,-5.1023951
14:24:15.637,6.7178497,-2.7035904,-16.348661
14:24:15.770,17.710476,-9.0206423,1.8583258
14:24:15.888,4.6959143,-17.354843,9.4627161
14:24:16.017,-16.327425,7.6405816,-5.5402818
14:24:16.150,0.18305093,-7.7500534,0.62123656
14:24:16.266,23.297718,-11.068898,8.082058
14:24:16.528,-3.1932218,-1.5957136,1.7961125
14:24:16.671,-4.4087758,2.5701907,0.037387855
14:24:16.821,16.363317,-10.276875,3.5859439
14:24:16.945,10.524831,-2.0982063,3.8659041
14:24:17.068,3.6263227,0.0050847479,0.75523466
14:24:17.190,-15.327226,9.1504526,-2.4655046
14:24:17.312,-2.0805593,-0.49980083,-0.14446667
14:24:17.434,33.515072,-13.686646,7.4120674
14:24:17.596,-1.6354942,-2.7586255,2.4373889
14:24:17.730,-13.855639,5.0970116,-0.63738811
14:24:17.830,6.2703919,-13.815859,6.54108
14:24:17.953,14.386847,-7.3408809,5.4068818
14:24:18.084,0.23808585,2.4266212,1.2744771
14:24:18.202,-12.171092,9.3897352,-1.8433708
14:24:18.326,-0.27876383,4.3624148,-1.6256239
14:24:18.458,13.345968,-5.5366926,4.4688954
14:24:18.565,8.4670029,-3.3065817,4.1817565
14:24:18.703,12.80519,-2.1891336,5.1484571
14:24:18.852,0.84586281,4.5514479,-0.72831541
14:24:18.969,-8.895318,7.2242308,-1.8816559
14:24:19.149,-4.3848476,5.7646089,-3.6260235
14:24:19.269,9.6394863,-7.1207409,2.6192434
14:24:19.394,11.984452,-6.1468625,3.408875
14:24:19.528,14.922838,-5.8884373,6.239584
14:24:19.659,2.8390841,2.0772691,1.0160524
14:24:19.765,-9.9792671,8.0856466,-3.4561331
14:24:19.886,-7.4452677,6.075676,-1.0537393
14:24:19.984,2.1810579,0.7396813,0.58534425
14:24:20.098,17.363518,-10.116555,7.7733836
14:24:20.235,9.3451691,-4.668098,4.8086762
14:24:20.348,-2.2791636,3.0200412,0.75762749
14:24:20.466,-13.745569,8.7029953,-0.814457
14:24:20.583,-0.42233321,-2.4212375,0.34366915
14:24:20.729,24.845875,-12.365808,10.020244
14:24:20.864,4.7365923,0.017048862,1.8056837
14:24:21.016,-5.1936216,9.1935234,-1.3002
14:24:21.139,0.72861451,9.2126665,-1.637588
14:24:21.266,0.31944183,6.0732832,0.37477586
14:24:21.389,5.3108697,-6.9149585,4.0310087
14:24:21.516,4.6337008,-12.150455,-12.761821
14:24:21.655,14.97548,-6.4675007,-11.350055
14:24:21.772,14.362918,-1.8565313,-9.0960159
14:24:21.898,8.6560364,-0.96879405,3.2653055
14:24:22.007,7.4596248,-1.3947165,8.4290171
14:24:22.133,10.663614,1.9121644,6.833004
14:24:22.250,10.441082,4.3145585,-0.63978094
14:24:22.373,4.5738807,5.374579,-1.7668004
14:24:22.531,-0.068195447,1.0268201,-2.1879373
14:24:22.690,6.0000029,1.1775678,13.963615
14:24:22.822,7.7108707,2.955435,8.6371927
14:24:23.174,-0.53958148,-0.51176494,5.988338
14:24:23.280,1.0851451,-0.53090751,9.6661062
14:24:23.419,1.0109676,0.052941199,9.3263254
14:24:23.572,1.1449656,0.22283161,9.7426767
14:24:23.698,0.84107715,0.60568321,6.9717879
14:24:23.867,0.037088752,0.4549354,9.8359966
14:24:23.978,0.065802626,0.47168517,9.7785692
14:24:24.098,0.049052864,0.48125646,9.8072824
14:24:24.233,0.039481573,0.46450669,9.7642117
14:24:24.367,0.058624156,0.49322057,9.8359966
14:24:24.498,0.041874398,0.4764708,9.7761765
14:24:24.620,0.032303106,0.48125646,9.8048897
14:24:24.740,0.022731815,0.48843491,9.8359966
14:24:24.873,0.017946171,0.48604211,9.8240328
14:24:25.015,0.02751746,0.474078,9.8312111
14:24:25.157,0.041874398,0.4764708,9.8048897
14:24:25.348,0.051445685,0.42622152,9.77139
14:24:25.650,0.05383851,0.45732823,9.7953186
14:24:25.772,0.049052864,1.8284156,9.6924276
14:24:25.898,0.11126626,-1.2104691,10.034601
14:24:26.021,1.4584254,0.60089761,11.834003
14:24:26.148,1.7814565,3.0415766,14.080864
14:24:26.266,0.62811595,2.984149,14.116756
14:24:26.399,1.14018,1.5245271,10.060922
14:24:26.506,0.077766739,1.1703894,5.9907308
14:24:26.629,-0.49411789,3.388536,3.4686956
14:24:26.751,-0.69511497,3.0511479,2.0784655
14:24:26.865,0.53240305,2.4170499,3.3729825
14:24:26.984,2.6333013,2.9626136,7.7183485
14:24:27.123,3.3080773,1.4742779,9.4411812
14:24:27.259,5.0380878,0.012263216,12.463316
14:24:27.371,3.473182,-0.63619173,12.05175
14:24:27.503,3.3008988,-1.1195419,10.709377
14:24:27.625,2.9850461,-1.05015,11.341082
14:24:27.759,2.4346972,-1.0764711,9.371789
14:24:27.881,2.5495524,-1.0740783,9.1205425
14:24:28.028,2.0303099,-1.0668998,9.5273228
14:24:28.181,2.0805593,-1.3492528,9.7331057
14:24:28.298,2.4131618,-1.2559328,9.4938231
14:24:28.456,3.4181471,-0.90179503,12.185748
14:24:28.578,4.0402808,-0.38733816,13.36541
14:24:28.698,3.0209386,0.15583257,11.192727
14:24:28.843,0.25962126,1.6250256,7.242177
14:24:29.027,0.32183465,2.9793632,6.2970119
14:24:29.150,0.2955136,3.8024943,6.7085772
14:24:29.316,-0.48933223,4.3600221,5.8806605
14:24:29.436,-0.41754755,4.5155554,6.5075803
14:24:29.606,1.006182,3.9867415,7.4766736
14:24:29.787,2.7553353,3.6661034,8.7592268
14:24:29.909,3.5784662,2.0605195,8.9075813
14:24:30.036,5.3156557,1.7039888,11.030015
14:24:30.152,5.7104712,1.364208,10.345668
14:24:30.265,4.3920259,1.1799606,9.6708918
14:24:30.392,3.7196429,0.77318084,9.1109715
14:24:30.535,3.6670008,0.90717888,9.0080795
14:24:30.719,4.0139599,0.41186461,8.5510511
14:24:30.898,4.3178487,0.1797608,8.4936228
14:24:31.027,4.2053857,0.33050862,9.1372919
14:24:31.132,4.2149572,0.24915266,9.2712908
14:24:31.252,4.0785661,0.0098703932,8.9769735
14:24:31.386,4.0761733,0.029012974,9.1444712
14:24:31.519,4.135994,-0.049950171,8.8812599
14:24:31.654,3.7770705,-0.27966115,9.0367937
14:24:31.799,5.2366924,0.031405795,12.630814
14:24:31.933,3.9326041,0.87128657,14.853745
14:24:32.087,2.4466612,1.2038889,8.3715887
14:24:32.199,0.25722843,3.4411781,6.0170517
14:24:32.323,-0.38644084,3.7570307,5.7825551
14:24:32.433,-0.46061835,4.2714877,6.1342998
14:24:32.568,-0.98225367,4.7261238,4.8972106
14:24:32.698,0.80279201,2.9673991,4.9115677
14:24:32.813,1.625923,1.82363,7.7662048
14:24:32.970,4.7844491,1.9767706,10.644771
14:24:33.078,5.2917271,0.1582254,12.587743
14:24:33.211,4.6743789,-0.17916259,12.343675
14:24:33.331,4.1240296,-0.82043904,10.496416
14:24:33.498,3.8919261,-1.0070792,9.2641115
14:24:33.634,4.135994,-0.99272227,8.7687979
14:24:33.770,3.9230328,-1.2224332,8.9291172
14:24:33.895,3.7172499,-1.3444673,8.9937229
14:24:34.065,4.0139599,-1.1793624,9.156435
14:24:34.222,4.0857449,-1.5071791,8.5055876
14:24:34.363,3.8823547,-1.4712868,8.8645105
14:24:34.513,3.6789649,-1.6938193,8.4840517
14:24:34.649,6.0263238,-0.80847496,16.614862
14:24:34.755,7.8759756,-1.1769696,13.492229
14:24:34.867,3.1645079,1.2948161,9.9006023
14:24:34.976,1.948954,1.1512468,4.002295
14:24:35.107,1.274178,3.2976086,3.1337004
14:24:35.251,0.62811595,1.2996018,-0.83838522
14:24:35.379,2.1260228,1.794916,7.4694948
14:24:35.498,5.7822561,1.242174,10.362417
14:24:35.719,7.4045897,0.51475596,11.152049
14:24:35.844,4.1838503,-0.83479601,11.006087
14:24:35.967,3.178865,-0.23659034,9.4722872
14:24:36.081,2.7074788,-0.34426737,10.173385
14:24:36.198,2.4921248,-0.29401809,9.8862457
14:24:36.335,2.6093731,-0.33948171,9.8503532
14:24:36.465,4.4231324,-0.045164529,13.317554
14:24:36.571,4.4685965,0.98614204,14.650355
14:24:36.678,5.4927244,1.538884,13.456337
14:24:36.778,1.5158532,1.2541381,7.9408813
14:24:36.899,-0.49651068,2.1394825,1.5376877
14:24:37.018,0.4103691,2.3572295,-1.4270196
14:24:37.154,0.54197431,2.2950161,2.3751755
14:24:37.298,2.9156544,3.2688949,7.9648094
14:24:37.448,5.3395839,1.297209,10.460524
14:24:37.577,3.7196429,1.0627123,13.36541
14:24:37.715,3.0664022,0.24675983,10.86491
14:24:37.898,1.881955,0.029012974,9.8742819
14:24:38.017,0.97507524,0.28025934,9.9053888
